"ExperimentName","Subject","Session","SessionDate","SessionTime","Block","metablock","TaskType","Trial","Answer","Condition","Correct","CorrectResponse","DifferenceCorrect","LeftNumber","RightNumber","Verification","Problem.ACC","Problem.CRESP","Problem.RESP","Problem.RT","run","Task"
"Arithmetic_Run1",1,1,"05-12-2015",19:22:31,1,3,"LargeProblem",1,12,"L","I",2,1,3,9,13,1,2,2,2582,1,"arithmetic"
"Arithmetic_Run1",1,1,"05-12-2015",19:22:31,1,3,"LargeProblem",2,12,"L","C",1,0,4,8,12,1,1,1,2262,1,"arithmetic"
"Arithmetic_Run1",1,1,"05-12-2015",19:22:31,1,3,"LargeProblem",3,13,"L","C",1,0,5,8,13,1,1,1,2719,1,"arithmetic"
"Arithmetic_Run1",1,1,"05-12-2015",19:22:31,1,3,"LargeProblem",4,14,"L","C",1,0,8,6,14,1,1,1,3997,1,"arithmetic"
"Arithmetic_Run1",1,1,"05-12-2015",19:22:31,1,3,"LargeProblem",5,13,"L","I",2,1,9,4,14,1,2,2,2698,1,"arithmetic"
"Arithmetic_Run1",1,1,"05-12-2015",19:22:31,1,3,"LargeProblem",6,14,"L","I",2,2,9,5,16,1,2,2,2250,1,"arithmetic"
"Arithmetic_Run1",1,1,"05-12-2015",19:22:31,2,6,"SmallProblem",1,5,"S","C",1,0,2,3,5,1,1,1,2008,1,"arithmetic"
"Arithmetic_Run1",1,1,"05-12-2015",19:22:31,2,6,"SmallProblem",2,7,"S","I",2,2,3,4,9,1,2,2,1823,1,"arithmetic"
"Arithmetic_Run1",1,1,"05-12-2015",19:22:31,2,6,"SmallProblem",3,8,"S","C",1,0,6,2,8,1,1,1,2297,1,"arithmetic"
"Arithmetic_Run1",1,1,"05-12-2015",19:22:31,2,6,"SmallProblem",4,8,"S","C",1,0,5,3,8,1,1,1,1681,1,"arithmetic"
"Arithmetic_Run1",1,1,"05-12-2015",19:22:31,2,6,"SmallProblem",5,10,"S","C",1,0,6,4,10,1,1,1,1642,1,"arithmetic"
"Arithmetic_Run1",1,1,"05-12-2015",19:22:31,2,6,"SmallProblem",6,7,"S","I",2,1,2,5,8,1,2,2,1941,1,"arithmetic"
"Arithmetic_Run1",1,1,"05-12-2015",19:22:31,3,2,"SmallProblem",1,9,"S","C",1,0,2,7,9,1,1,1,2214,1,"arithmetic"
"Arithmetic_Run1",1,1,"05-12-2015",19:22:31,3,2,"SmallProblem",2,6,"S","I",2,2,4,2,8,1,2,2,1637,1,"arithmetic"
"Arithmetic_Run1",1,1,"05-12-2015",19:22:31,3,2,"SmallProblem",3,9,"S","C",1,0,3,6,9,1,1,1,2154,1,"arithmetic"
"Arithmetic_Run1",1,1,"05-12-2015",19:22:31,3,2,"SmallProblem",4,10,"S","I",2,1,8,2,11,1,2,2,1616,1,"arithmetic"
"Arithmetic_Run1",1,1,"05-12-2015",19:22:31,3,2,"SmallProblem",5,9,"S","I",2,1,4,5,10,1,2,2,2517,1,"arithmetic"
"Arithmetic_Run1",1,1,"05-12-2015",19:22:31,3,2,"SmallProblem",6,10,"S","I",2,2,7,3,12,1,2,2,1810,1,"arithmetic"
"Arithmetic_Run1",1,1,"05-12-2015",19:22:31,4,5,"Plus1",1,8,"Plus1","I",2,1,7,1,9,1,2,2,1723,1,"arithmetic"
"Arithmetic_Run1",1,1,"05-12-2015",19:22:31,4,5,"Plus1",2,6,"Plus1","I",2,2,5,1,8,1,2,2,1694,1,"arithmetic"
"Arithmetic_Run1",1,1,"05-12-2015",19:22:31,4,5,"Plus1",3,7,"Plus1","C",1,0,6,1,7,1,1,1,1878,1,"arithmetic"
"Arithmetic_Run1",1,1,"05-12-2015",19:22:31,4,5,"Plus1",4,9,"Plus1","I",2,2,8,1,11,1,2,2,1352,1,"arithmetic"
"Arithmetic_Run1",1,1,"05-12-2015",19:22:31,4,5,"Plus1",5,5,"Plus1","I",2,1,4,1,6,1,2,2,1546,1,"arithmetic"
"Arithmetic_Run1",1,1,"05-12-2015",19:22:31,4,5,"Plus1",6,4,"Plus1","C",1,0,3,1,4,1,1,1,2183,1,"arithmetic"
"Arithmetic_Run1",1,1,"05-12-2015",19:22:31,5,4,"LargeProblem",1,13,"L","I",2,1,6,7,14,1,2,2,3008,1,"arithmetic"
"Arithmetic_Run1",1,1,"05-12-2015",19:22:31,5,4,"LargeProblem",2,11,"L","C",1,0,2,9,11,1,1,1,2460,1,"arithmetic"
"Arithmetic_Run1",1,1,"05-12-2015",19:22:31,5,4,"LargeProblem",3,11,"L","I",2,2,5,6,13,1,2,2,2795,1,"arithmetic"
"Arithmetic_Run1",1,1,"05-12-2015",19:22:31,5,4,"LargeProblem",4,12,"L","C",1,0,7,5,12,1,1,1,3552,1,"arithmetic"
"Arithmetic_Run1",1,1,"05-12-2015",19:22:31,5,4,"LargeProblem",5,11,"L","C",1,0,7,4,11,1,1,1,2546,1,"arithmetic"
"Arithmetic_Run1",1,1,"05-12-2015",19:22:31,5,4,"LargeProblem",6,11,"L","I",2,2,8,3,13,1,2,2,2061,1,"arithmetic"
"Arithmetic_Run1",1,1,"05-12-2015",19:22:31,6,1,"Plus1",1,3,"Plus1","C",1,0,2,1,3,1,1,1,1777,1,"arithmetic"
"Arithmetic_Run1",1,1,"05-12-2015",19:22:31,6,1,"Plus1",2,9,"Plus1","C",1,0,8,1,9,1,1,1,1586,1,"arithmetic"
"Arithmetic_Run1",1,1,"05-12-2015",19:22:31,6,1,"Plus1",3,4,"Plus1","I",2,1,3,1,5,1,2,2,2882,1,"arithmetic"
"Arithmetic_Run1",1,1,"05-12-2015",19:22:31,6,1,"Plus1",4,10,"Plus1","I",2,2,9,1,12,1,2,2,2267,1,"arithmetic"
"Arithmetic_Run1",1,1,"05-12-2015",19:22:31,6,1,"Plus1",5,8,"Plus1","C",1,0,7,1,8,1,1,1,1455,1,"arithmetic"
"Arithmetic_Run1",1,1,"05-12-2015",19:22:31,6,1,"Plus1",6,5,"Plus1","C",1,0,4,1,5,1,1,1,1589,1,"arithmetic"
"Arithmetic_Run2",1,1,"05-12-2015",19:28:02,1,3,"LargeProblem",1,11,"L","C",1,0,6,5,11,1,1,1,2647,2,"arithmetic"
"Arithmetic_Run2",1,1,"05-12-2015",19:28:02,1,3,"LargeProblem",2,11,"L","I",2,1,4,7,12,1,2,2,1850,2,"arithmetic"
"Arithmetic_Run2",1,1,"05-12-2015",19:28:02,1,3,"LargeProblem",3,13,"L","C",1,0,4,9,13,1,1,1,1637,2,"arithmetic"
"Arithmetic_Run2",1,1,"05-12-2015",19:28:02,1,3,"LargeProblem",4,12,"L","C",1,0,9,3,12,1,1,1,3186,2,"arithmetic"
"Arithmetic_Run2",1,1,"05-12-2015",19:28:02,1,3,"LargeProblem",5,14,"L","I",2,1,6,8,15,1,2,2,4463,2,"arithmetic"
"Arithmetic_Run2",1,1,"05-12-2015",19:28:02,1,3,"LargeProblem",6,11,"L","C",1,0,3,8,11,1,1,1,1848,2,"arithmetic"
"Arithmetic_Run2",1,1,"05-12-2015",19:28:02,2,1,"Plus1",1,3,"Plus1","I",2,1,2,1,4,1,2,2,1837,2,"arithmetic"
"Arithmetic_Run2",1,1,"05-12-2015",19:28:02,2,1,"Plus1",2,6,"Plus1","I",2,1,5,1,7,1,2,2,1440,2,"arithmetic"
"Arithmetic_Run2",1,1,"05-12-2015",19:28:02,2,1,"Plus1",3,3,"Plus1","C",1,0,2,1,3,1,1,1,1504,2,"arithmetic"
"Arithmetic_Run2",1,1,"05-12-2015",19:28:02,2,1,"Plus1",4,5,"Plus1","I",2,2,4,1,7,1,2,2,1143,2,"arithmetic"
"Arithmetic_Run2",1,1,"05-12-2015",19:28:02,2,1,"Plus1",5,10,"Plus1","I",2,2,9,1,12,1,2,2,1673,2,"arithmetic"
"Arithmetic_Run2",1,1,"05-12-2015",19:28:02,2,1,"Plus1",6,8,"Plus1","C",1,0,7,1,8,1,1,1,1392,2,"arithmetic"
"Arithmetic_Run2",1,1,"05-12-2015",19:28:02,3,6,"SmallProblem",1,9,"S","C",1,0,5,4,9,0,1,2,1911,2,"arithmetic"
"Arithmetic_Run2",1,1,"05-12-2015",19:28:02,3,6,"SmallProblem",2,10,"S","C",1,0,2,8,10,1,1,1,1597,2,"arithmetic"
"Arithmetic_Run2",1,1,"05-12-2015",19:28:02,3,6,"SmallProblem",3,7,"S","C",1,0,5,2,7,1,1,1,1835,2,"arithmetic"
"Arithmetic_Run2",1,1,"05-12-2015",19:28:02,3,6,"SmallProblem",4,9,"S","I",2,1,7,2,10,1,2,2,2132,2,"arithmetic"
"Arithmetic_Run2",1,1,"05-12-2015",19:28:02,3,6,"SmallProblem",5,9,"S","I",2,2,6,3,11,1,2,2,1501,2,"arithmetic"
"Arithmetic_Run2",1,1,"05-12-2015",19:28:02,3,6,"SmallProblem",6,8,"S","I",2,1,2,6,9,1,2,2,2568,2,"arithmetic"
"Arithmetic_Run2",1,1,"05-12-2015",19:28:02,4,2,"SmallProblem",1,10,"S","C",1,0,3,7,10,1,1,1,1570,2,"arithmetic"
"Arithmetic_Run2",1,1,"05-12-2015",19:28:02,4,2,"SmallProblem",2,5,"S","I",2,2,3,2,7,1,2,2,2221,2,"arithmetic"
"Arithmetic_Run2",1,1,"05-12-2015",19:28:02,4,2,"SmallProblem",3,10,"S","I",2,1,4,6,11,1,2,2,1899,2,"arithmetic"
"Arithmetic_Run2",1,1,"05-12-2015",19:28:02,4,2,"SmallProblem",4,6,"S","C",1,0,2,4,6,1,1,1,1590,2,"arithmetic"
"Arithmetic_Run2",1,1,"05-12-2015",19:28:02,4,2,"SmallProblem",5,7,"S","C",1,0,4,3,7,1,1,1,2307,2,"arithmetic"
"Arithmetic_Run2",1,1,"05-12-2015",19:28:02,4,2,"SmallProblem",6,8,"S","I",2,2,3,5,10,1,2,2,3089,2,"arithmetic"
"Arithmetic_Run2",1,1,"05-12-2015",19:28:02,5,5,"Plus1",1,9,"Plus1","I",2,2,8,1,11,1,2,2,1477,2,"arithmetic"
"Arithmetic_Run2",1,1,"05-12-2015",19:28:02,5,5,"Plus1",2,10,"Plus1","C",1,0,9,1,10,1,1,1,1958,2,"arithmetic"
"Arithmetic_Run2",1,1,"05-12-2015",19:28:02,5,5,"Plus1",3,7,"Plus1","I",2,1,6,1,8,1,2,2,1954,2,"arithmetic"
"Arithmetic_Run2",1,1,"05-12-2015",19:28:02,5,5,"Plus1",4,7,"Plus1","C",1,0,6,1,7,1,1,1,1578,2,"arithmetic"
"Arithmetic_Run2",1,1,"05-12-2015",19:28:02,5,5,"Plus1",5,4,"Plus1","C",1,0,3,1,4,1,1,1,2703,2,"arithmetic"
"Arithmetic_Run2",1,1,"05-12-2015",19:28:02,5,5,"Plus1",6,6,"Plus1","C",1,0,5,1,6,1,1,1,1290,2,"arithmetic"
"Arithmetic_Run2",1,1,"05-12-2015",19:28:02,6,4,"LargeProblem",1,14,"L","C",1,0,5,9,14,1,1,1,3092,2,"arithmetic"
"Arithmetic_Run2",1,1,"05-12-2015",19:28:02,6,4,"LargeProblem",2,11,"L","I",2,2,9,2,13,1,2,2,2606,2,"arithmetic"
"Arithmetic_Run2",1,1,"05-12-2015",19:28:02,6,4,"LargeProblem",3,13,"L","I",2,2,8,5,15,1,2,2,2198,2,"arithmetic"
"Arithmetic_Run2",1,1,"05-12-2015",19:28:02,6,4,"LargeProblem",4,13,"L","C",1,0,7,6,13,1,1,1,2105,2,"arithmetic"
"Arithmetic_Run2",1,1,"05-12-2015",19:28:02,6,4,"LargeProblem",5,12,"L","I",2,1,8,4,13,1,2,2,4012,2,"arithmetic"
"Arithmetic_Run2",1,1,"05-12-2015",19:28:02,6,4,"LargeProblem",6,12,"L","I",2,2,5,7,14,1,2,2,3022,2,"arithmetic"
"Arithmetic_Run1",2,1,"05-13-2015",19:38:30,1,2,"SmallProblem",1,9,"S","I",2,1,4,5,10,1,2,2,3420,1,"arithmetic"
"Arithmetic_Run1",2,1,"05-13-2015",19:38:30,1,2,"SmallProblem",2,6,"S","I",2,2,4,2,8,1,2,2,2622,1,"arithmetic"
"Arithmetic_Run1",2,1,"05-13-2015",19:38:30,1,2,"SmallProblem",3,10,"S","C",1,0,6,4,10,1,1,1,2215,1,"arithmetic"
"Arithmetic_Run1",2,1,"05-13-2015",19:38:30,1,2,"SmallProblem",4,8,"S","C",1,0,6,2,8,1,1,1,2381,1,"arithmetic"
"Arithmetic_Run1",2,1,"05-13-2015",19:38:30,1,2,"SmallProblem",5,10,"S","I",2,1,8,2,11,1,2,2,3521,1,"arithmetic"
"Arithmetic_Run1",2,1,"05-13-2015",19:38:30,1,2,"SmallProblem",6,8,"S","C",1,0,5,3,8,1,1,1,2552,1,"arithmetic"
"Arithmetic_Run1",2,1,"05-13-2015",19:38:30,2,1,"Plus1",1,4,"Plus1","C",1,0,3,1,4,1,1,1,3128,1,"arithmetic"
"Arithmetic_Run1",2,1,"05-13-2015",19:38:30,2,1,"Plus1",2,3,"Plus1","C",1,0,2,1,3,1,1,1,1696,1,"arithmetic"
"Arithmetic_Run1",2,1,"05-13-2015",19:38:30,2,1,"Plus1",3,4,"Plus1","I",2,1,3,1,5,1,2,2,1983,1,"arithmetic"
"Arithmetic_Run1",2,1,"05-13-2015",19:38:30,2,1,"Plus1",4,5,"Plus1","I",2,1,4,1,6,1,2,2,2350,1,"arithmetic"
"Arithmetic_Run1",2,1,"05-13-2015",19:38:30,2,1,"Plus1",5,7,"Plus1","C",1,0,6,1,7,1,1,1,2517,1,"arithmetic"
"Arithmetic_Run1",2,1,"05-13-2015",19:38:30,2,1,"Plus1",6,6,"Plus1","I",2,2,5,1,8,1,2,2,2036,1,"arithmetic"
"Arithmetic_Run1",2,1,"05-13-2015",19:38:30,3,4,"LargeProblem",1,12,"L","I",2,1,3,9,13,0,2,1,3319,1,"arithmetic"
"Arithmetic_Run1",2,1,"05-13-2015",19:38:30,3,4,"LargeProblem",2,13,"L","C",1,0,5,8,13,1,1,1,4526,1,"arithmetic"
"Arithmetic_Run1",2,1,"05-13-2015",19:38:30,3,4,"LargeProblem",3,11,"L","C",1,0,2,9,11,1,1,1,3217,1,"arithmetic"
"Arithmetic_Run1",2,1,"05-13-2015",19:38:30,3,4,"LargeProblem",4,11,"L","C",1,0,7,4,11,1,1,1,3417,1,"arithmetic"
"Arithmetic_Run1",2,1,"05-13-2015",19:38:30,3,4,"LargeProblem",5,14,"L","C",1,0,8,6,14,1,1,1,3510,1,"arithmetic"
"Arithmetic_Run1",2,1,"05-13-2015",19:38:30,3,4,"LargeProblem",6,14,"L","I",2,2,9,5,16,1,2,2,3247,1,"arithmetic"
"Arithmetic_Run1",2,1,"05-13-2015",19:38:30,4,5,"Plus1",1,8,"Plus1","C",1,0,7,1,8,1,1,1,2613,1,"arithmetic"
"Arithmetic_Run1",2,1,"05-13-2015",19:38:30,4,5,"Plus1",2,5,"Plus1","C",1,0,4,1,5,1,1,1,2624,1,"arithmetic"
"Arithmetic_Run1",2,1,"05-13-2015",19:38:30,4,5,"Plus1",3,10,"Plus1","I",2,2,9,1,12,1,2,2,2270,1,"arithmetic"
"Arithmetic_Run1",2,1,"05-13-2015",19:38:30,4,5,"Plus1",4,9,"Plus1","I",2,2,8,1,11,1,2,2,2428,1,"arithmetic"
"Arithmetic_Run1",2,1,"05-13-2015",19:38:30,4,5,"Plus1",5,8,"Plus1","I",2,1,7,1,9,1,2,2,2664,1,"arithmetic"
"Arithmetic_Run1",2,1,"05-13-2015",19:38:30,4,5,"Plus1",6,9,"Plus1","C",1,0,8,1,9,1,1,1,2632,1,"arithmetic"
"Arithmetic_Run1",2,1,"05-13-2015",19:38:30,5,6,"SmallProblem",1,5,"S","C",1,0,2,3,5,1,1,1,2168,1,"arithmetic"
"Arithmetic_Run1",2,1,"05-13-2015",19:38:30,5,6,"SmallProblem",2,7,"S","I",2,1,2,5,8,1,2,2,2856,1,"arithmetic"
"Arithmetic_Run1",2,1,"05-13-2015",19:38:30,5,6,"SmallProblem",3,9,"S","C",1,0,2,7,9,1,1,1,2440,1,"arithmetic"
"Arithmetic_Run1",2,1,"05-13-2015",19:38:30,5,6,"SmallProblem",4,10,"S","I",2,2,7,3,12,1,2,2,3837,1,"arithmetic"
"Arithmetic_Run1",2,1,"05-13-2015",19:38:30,5,6,"SmallProblem",5,7,"S","I",2,2,3,4,9,1,2,2,4077,1,"arithmetic"
"Arithmetic_Run1",2,1,"05-13-2015",19:38:30,5,6,"SmallProblem",6,9,"S","C",1,0,3,6,9,1,1,1,2948,1,"arithmetic"
"Arithmetic_Run1",2,1,"05-13-2015",19:38:30,6,3,"LargeProblem",1,11,"L","I",2,2,5,6,13,1,2,2,4818,1,"arithmetic"
"Arithmetic_Run1",2,1,"05-13-2015",19:38:30,6,3,"LargeProblem",2,11,"L","I",2,2,8,3,13,1,2,2,2769,1,"arithmetic"
"Arithmetic_Run1",2,1,"05-13-2015",19:38:30,6,3,"LargeProblem",3,13,"L","I",2,1,6,7,14,1,2,2,5076,1,"arithmetic"
"Arithmetic_Run1",2,1,"05-13-2015",19:38:30,6,3,"LargeProblem",4,13,"L","I",2,1,9,4,14,0,NA,NA,0,1,"arithmetic"
"Arithmetic_Run1",2,1,"05-13-2015",19:38:30,6,3,"LargeProblem",5,12,"L","C",1,0,4,8,12,0,1,2,79,1,"arithmetic"
"Arithmetic_Run1",2,1,"05-13-2015",19:38:30,6,3,"LargeProblem",6,12,"L","C",1,0,7,5,12,1,1,1,40,1,"arithmetic"
"Arithmetic_Run2",2,1,"05-13-2015",19:44:44,1,2,"SmallProblem",1,8,"S","I",2,1,2,6,9,1,2,2,2281,2,"arithmetic"
"Arithmetic_Run2",2,1,"05-13-2015",19:44:44,1,2,"SmallProblem",2,5,"S","I",2,2,3,2,7,1,2,2,2177,2,"arithmetic"
"Arithmetic_Run2",2,1,"05-13-2015",19:44:44,1,2,"SmallProblem",3,7,"S","C",1,0,4,3,7,1,1,1,2380,2,"arithmetic"
"Arithmetic_Run2",2,1,"05-13-2015",19:44:44,1,2,"SmallProblem",4,6,"S","C",1,0,2,4,6,1,1,1,3159,2,"arithmetic"
"Arithmetic_Run2",2,1,"05-13-2015",19:44:44,1,2,"SmallProblem",5,9,"S","I",2,1,7,2,10,0,NA,NA,0,2,"arithmetic"
"Arithmetic_Run2",2,1,"05-13-2015",19:44:44,1,2,"SmallProblem",6,10,"S","C",1,0,3,7,10,0,1,2,667,2,"arithmetic"
"Arithmetic_Run2",2,1,"05-13-2015",19:44:44,2,5,"Plus1",1,8,"Plus1","C",1,0,7,1,8,1,1,1,3212,2,"arithmetic"
"Arithmetic_Run2",2,1,"05-13-2015",19:44:44,2,5,"Plus1",2,5,"Plus1","I",2,2,4,1,7,1,2,2,4496,2,"arithmetic"
"Arithmetic_Run2",2,1,"05-13-2015",19:44:44,2,5,"Plus1",3,9,"Plus1","I",2,2,8,1,11,1,2,2,4140,2,"arithmetic"
"Arithmetic_Run2",2,1,"05-13-2015",19:44:44,2,5,"Plus1",4,7,"Plus1","C",1,0,6,1,7,1,1,1,2794,2,"arithmetic"
"Arithmetic_Run2",2,1,"05-13-2015",19:44:44,2,5,"Plus1",5,4,"Plus1","C",1,0,3,1,4,1,1,1,2093,2,"arithmetic"
"Arithmetic_Run2",2,1,"05-13-2015",19:44:44,2,5,"Plus1",6,10,"Plus1","I",2,2,9,1,12,1,2,2,4069,2,"arithmetic"
"Arithmetic_Run2",2,1,"05-13-2015",19:44:44,3,1,"Plus1",1,6,"Plus1","C",1,0,5,1,6,1,1,1,3102,2,"arithmetic"
"Arithmetic_Run2",2,1,"05-13-2015",19:44:44,3,1,"Plus1",2,3,"Plus1","I",2,1,2,1,4,1,2,2,2411,2,"arithmetic"
"Arithmetic_Run2",2,1,"05-13-2015",19:44:44,3,1,"Plus1",3,7,"Plus1","I",2,1,6,1,8,1,2,2,3859,2,"arithmetic"
"Arithmetic_Run2",2,1,"05-13-2015",19:44:44,3,1,"Plus1",4,10,"Plus1","C",1,0,9,1,10,0,1,2,2992,2,"arithmetic"
"Arithmetic_Run2",2,1,"05-13-2015",19:44:44,3,1,"Plus1",5,6,"Plus1","I",2,1,5,1,7,1,2,2,3109,2,"arithmetic"
"Arithmetic_Run2",2,1,"05-13-2015",19:44:44,3,1,"Plus1",6,3,"Plus1","C",1,0,2,1,3,0,1,2,3076,2,"arithmetic"
"Arithmetic_Run2",2,1,"05-13-2015",19:44:44,4,4,"LargeProblem",1,11,"L","I",2,1,4,7,12,0,NA,NA,0,2,"arithmetic"
"Arithmetic_Run2",2,1,"05-13-2015",19:44:44,4,4,"LargeProblem",2,11,"L","C",1,0,6,5,11,1,1,1,854,2,"arithmetic"
"Arithmetic_Run2",2,1,"05-13-2015",19:44:44,4,4,"LargeProblem",3,12,"L","I",2,1,8,4,13,1,2,2,5321,2,"arithmetic"
"Arithmetic_Run2",2,1,"05-13-2015",19:44:44,4,4,"LargeProblem",4,11,"L","I",2,2,9,2,13,1,2,2,4461,2,"arithmetic"
"Arithmetic_Run2",2,1,"05-13-2015",19:44:44,4,4,"LargeProblem",5,14,"L","C",1,0,5,9,14,1,1,1,6017,2,"arithmetic"
"Arithmetic_Run2",2,1,"05-13-2015",19:44:44,4,4,"LargeProblem",6,13,"L","C",1,0,7,6,13,1,1,1,3936,2,"arithmetic"
"Arithmetic_Run2",2,1,"05-13-2015",19:44:44,5,6,"SmallProblem",1,7,"S","C",1,0,5,2,7,1,1,1,5914,2,"arithmetic"
"Arithmetic_Run2",2,1,"05-13-2015",19:44:44,5,6,"SmallProblem",2,9,"S","C",1,0,5,4,9,1,1,1,5167,2,"arithmetic"
"Arithmetic_Run2",2,1,"05-13-2015",19:44:44,5,6,"SmallProblem",3,9,"S","I",2,2,6,3,11,1,2,2,2549,2,"arithmetic"
"Arithmetic_Run2",2,1,"05-13-2015",19:44:44,5,6,"SmallProblem",4,8,"S","I",2,2,3,5,10,1,2,2,2722,2,"arithmetic"
"Arithmetic_Run2",2,1,"05-13-2015",19:44:44,5,6,"SmallProblem",5,10,"S","C",1,0,2,8,10,0,1,2,2321,2,"arithmetic"
"Arithmetic_Run2",2,1,"05-13-2015",19:44:44,5,6,"SmallProblem",6,10,"S","I",2,1,4,6,11,1,2,2,3235,2,"arithmetic"
"Arithmetic_Run2",2,1,"05-13-2015",19:44:44,6,3,"LargeProblem",1,13,"L","C",1,0,4,9,13,1,1,1,4744,2,"arithmetic"
"Arithmetic_Run2",2,1,"05-13-2015",19:44:44,6,3,"LargeProblem",2,11,"L","C",1,0,3,8,11,0,1,2,5668,2,"arithmetic"
"Arithmetic_Run2",2,1,"05-13-2015",19:44:44,6,3,"LargeProblem",3,12,"L","I",2,2,5,7,14,1,2,2,5193,2,"arithmetic"
"Arithmetic_Run2",2,1,"05-13-2015",19:44:44,6,3,"LargeProblem",4,12,"L","C",1,0,9,3,12,0,NA,NA,0,2,"arithmetic"
"Arithmetic_Run2",2,1,"05-13-2015",19:44:44,6,3,"LargeProblem",5,13,"L","I",2,2,8,5,15,0,2,1,502,2,"arithmetic"
"Arithmetic_Run2",2,1,"05-13-2015",19:44:44,6,3,"LargeProblem",6,14,"L","I",2,1,6,8,15,1,2,2,5314,2,"arithmetic"
"Arithmetic_Run2",3,2,"05-14-2015",17:55:48,1,6,"SmallProblem",1,5,"S","I",2,2,3,2,7,1,2,2,4929,2,"arithmetic"
"Arithmetic_Run2",3,2,"05-14-2015",17:55:48,1,6,"SmallProblem",2,10,"S","C",1,0,3,7,10,0,NA,NA,0,2,"arithmetic"
"Arithmetic_Run2",3,2,"05-14-2015",17:55:48,1,6,"SmallProblem",3,6,"S","C",1,0,2,4,6,0,1,2,1337,2,"arithmetic"
"Arithmetic_Run2",3,2,"05-14-2015",17:55:48,1,6,"SmallProblem",4,10,"S","C",1,0,2,8,10,1,1,1,2087,2,"arithmetic"
"Arithmetic_Run2",3,2,"05-14-2015",17:55:48,1,6,"SmallProblem",5,8,"S","I",2,1,2,6,9,1,2,2,5017,2,"arithmetic"
"Arithmetic_Run2",3,2,"05-14-2015",17:55:48,1,6,"SmallProblem",6,7,"S","C",1,0,4,3,7,0,NA,NA,0,2,"arithmetic"
"Arithmetic_Run2",3,2,"05-14-2015",17:55:48,2,2,"SmallProblem",1,9,"S","C",1,0,5,4,9,1,1,1,4818,2,"arithmetic"
"Arithmetic_Run2",3,2,"05-14-2015",17:55:48,2,2,"SmallProblem",2,9,"S","I",2,2,6,3,11,1,2,2,5035,2,"arithmetic"
"Arithmetic_Run2",3,2,"05-14-2015",17:55:48,2,2,"SmallProblem",3,10,"S","I",2,1,4,6,11,1,2,2,4518,2,"arithmetic"
"Arithmetic_Run2",3,2,"05-14-2015",17:55:48,2,2,"SmallProblem",4,9,"S","I",2,1,7,2,10,0,2,1,1409,2,"arithmetic"
"Arithmetic_Run2",3,2,"05-14-2015",17:55:48,2,2,"SmallProblem",5,7,"S","C",1,0,5,2,7,0,NA,NA,0,2,"arithmetic"
"Arithmetic_Run2",3,2,"05-14-2015",17:55:48,2,2,"SmallProblem",6,8,"S","I",2,2,3,5,10,0,NA,NA,0,2,"arithmetic"
"Arithmetic_Run2",3,2,"05-14-2015",17:55:48,3,5,"Plus1",1,3,"Plus1","I",2,1,2,1,4,0,2,1,3600,2,"arithmetic"
"Arithmetic_Run2",3,2,"05-14-2015",17:55:48,3,5,"Plus1",2,6,"Plus1","I",2,1,5,1,7,1,2,2,2119,2,"arithmetic"
"Arithmetic_Run2",3,2,"05-14-2015",17:55:48,3,5,"Plus1",3,7,"Plus1","C",1,0,6,1,7,1,1,1,2597,2,"arithmetic"
"Arithmetic_Run2",3,2,"05-14-2015",17:55:48,3,5,"Plus1",4,4,"Plus1","C",1,0,3,1,4,1,1,1,3018,2,"arithmetic"
"Arithmetic_Run2",3,2,"05-14-2015",17:55:48,3,5,"Plus1",5,10,"Plus1","C",1,0,9,1,10,1,1,1,2414,2,"arithmetic"
"Arithmetic_Run2",3,2,"05-14-2015",17:55:48,3,5,"Plus1",6,3,"Plus1","C",1,0,2,1,3,1,1,1,4707,2,"arithmetic"
"Arithmetic_Run2",3,2,"05-14-2015",17:55:48,4,4,"LargeProblem",1,14,"L","I",2,1,6,8,15,0,NA,NA,0,2,"arithmetic"
"Arithmetic_Run2",3,2,"05-14-2015",17:55:48,4,4,"LargeProblem",2,11,"L","I",2,2,9,2,13,1,2,2,5087,2,"arithmetic"
"Arithmetic_Run2",3,2,"05-14-2015",17:55:48,4,4,"LargeProblem",3,14,"L","C",1,0,5,9,14,0,NA,NA,0,2,"arithmetic"
"Arithmetic_Run2",3,2,"05-14-2015",17:55:48,4,4,"LargeProblem",4,13,"L","I",2,2,8,5,15,0,2,1,4798,2,"arithmetic"
"Arithmetic_Run2",3,2,"05-14-2015",17:55:48,4,4,"LargeProblem",5,12,"L","I",2,2,5,7,14,1,2,2,2773,2,"arithmetic"
"Arithmetic_Run2",3,2,"05-14-2015",17:55:48,4,4,"LargeProblem",6,11,"L","I",2,1,4,7,12,1,2,2,4883,2,"arithmetic"
"Arithmetic_Run2",3,2,"05-14-2015",17:55:48,5,1,"Plus1",1,6,"Plus1","C",1,0,5,1,6,1,1,1,3383,2,"arithmetic"
"Arithmetic_Run2",3,2,"05-14-2015",17:55:48,5,1,"Plus1",2,5,"Plus1","I",2,2,4,1,7,1,2,2,5444,2,"arithmetic"
"Arithmetic_Run2",3,2,"05-14-2015",17:55:48,5,1,"Plus1",3,10,"Plus1","I",2,2,9,1,12,1,2,2,2977,2,"arithmetic"
"Arithmetic_Run2",3,2,"05-14-2015",17:55:48,5,1,"Plus1",4,7,"Plus1","I",2,1,6,1,8,1,2,2,1782,2,"arithmetic"
"Arithmetic_Run2",3,2,"05-14-2015",17:55:48,5,1,"Plus1",5,8,"Plus1","C",1,0,7,1,8,0,1,2,1903,2,"arithmetic"
"Arithmetic_Run2",3,2,"05-14-2015",17:55:48,5,1,"Plus1",6,9,"Plus1","I",2,2,8,1,11,1,2,2,3933,2,"arithmetic"
"Arithmetic_Run2",3,2,"05-14-2015",17:55:48,6,3,"LargeProblem",1,11,"L","C",1,0,3,8,11,0,1,2,2539,2,"arithmetic"
"Arithmetic_Run2",3,2,"05-14-2015",17:55:48,6,3,"LargeProblem",2,11,"L","C",1,0,6,5,11,0,1,2,3763,2,"arithmetic"
"Arithmetic_Run2",3,2,"05-14-2015",17:55:48,6,3,"LargeProblem",3,13,"L","C",1,0,4,9,13,0,1,2,1197,2,"arithmetic"
"Arithmetic_Run2",3,2,"05-14-2015",17:55:48,6,3,"LargeProblem",4,12,"L","C",1,0,9,3,12,1,1,1,1713,2,"arithmetic"
"Arithmetic_Run2",3,2,"05-14-2015",17:55:48,6,3,"LargeProblem",5,13,"L","C",1,0,7,6,13,1,1,1,5326,2,"arithmetic"
"Arithmetic_Run2",3,2,"05-14-2015",17:55:48,6,3,"LargeProblem",6,12,"L","I",2,1,8,4,13,1,2,2,3646,2,"arithmetic"
"Arithmetic_Run1",4,1,"05-12-2015",17:33:22,1,2,"SmallProblem",1,9,"S","I",2,1,4,5,10,1,2,2,4309,1,"arithmetic"
"Arithmetic_Run1",4,1,"05-12-2015",17:33:22,1,2,"SmallProblem",2,8,"S","C",1,0,5,3,8,1,1,1,4950,1,"arithmetic"
"Arithmetic_Run1",4,1,"05-12-2015",17:33:22,1,2,"SmallProblem",3,10,"S","I",2,2,7,3,12,1,2,2,2553,1,"arithmetic"
"Arithmetic_Run1",4,1,"05-12-2015",17:33:22,1,2,"SmallProblem",4,10,"S","C",1,0,6,4,10,1,1,1,4767,1,"arithmetic"
"Arithmetic_Run1",4,1,"05-12-2015",17:33:22,1,2,"SmallProblem",5,9,"S","C",1,0,2,7,9,1,1,1,5364,1,"arithmetic"
"Arithmetic_Run1",4,1,"05-12-2015",17:33:22,1,2,"SmallProblem",6,9,"S","C",1,0,3,6,9,1,1,1,4899,1,"arithmetic"
"Arithmetic_Run1",4,1,"05-12-2015",17:33:22,2,6,"SmallProblem",1,10,"S","I",2,1,8,2,11,1,2,2,4621,1,"arithmetic"
"Arithmetic_Run1",4,1,"05-12-2015",17:33:22,2,6,"SmallProblem",2,5,"S","C",1,0,2,3,5,1,1,1,3752,1,"arithmetic"
"Arithmetic_Run1",4,1,"05-12-2015",17:33:22,2,6,"SmallProblem",3,8,"S","C",1,0,6,2,8,1,1,1,3618,1,"arithmetic"
"Arithmetic_Run1",4,1,"05-12-2015",17:33:22,2,6,"SmallProblem",4,6,"S","I",2,2,4,2,8,0,NA,NA,0,1,"arithmetic"
"Arithmetic_Run1",4,1,"05-12-2015",17:33:22,2,6,"SmallProblem",5,7,"S","I",2,1,2,5,8,1,2,2,4326,1,"arithmetic"
"Arithmetic_Run1",4,1,"05-12-2015",17:33:22,2,6,"SmallProblem",6,7,"S","I",2,2,3,4,9,1,2,2,5430,1,"arithmetic"
"Arithmetic_Run1",4,1,"05-12-2015",17:33:22,3,1,"Plus1",1,6,"Plus1","I",2,2,5,1,8,1,2,2,2626,1,"arithmetic"
"Arithmetic_Run1",4,1,"05-12-2015",17:33:22,3,1,"Plus1",2,10,"Plus1","I",2,2,9,1,12,1,2,2,5668,1,"arithmetic"
"Arithmetic_Run1",4,1,"05-12-2015",17:33:22,3,1,"Plus1",3,5,"Plus1","I",2,1,4,1,6,0,NA,NA,0,1,"arithmetic"
"Arithmetic_Run1",4,1,"05-12-2015",17:33:22,3,1,"Plus1",4,8,"Plus1","C",1,0,7,1,8,0,NA,NA,0,1,"arithmetic"
"Arithmetic_Run1",4,1,"05-12-2015",17:33:22,3,1,"Plus1",5,9,"Plus1","C",1,0,8,1,9,1,1,1,4042,1,"arithmetic"
"Arithmetic_Run1",4,1,"05-12-2015",17:33:22,3,1,"Plus1",6,3,"Plus1","C",1,0,2,1,3,1,1,1,3895,1,"arithmetic"
"Arithmetic_Run1",4,1,"05-12-2015",17:33:22,4,3,"LargeProblem",1,12,"L","C",1,0,7,5,12,1,1,1,3130,1,"arithmetic"
"Arithmetic_Run1",4,1,"05-12-2015",17:33:22,4,3,"LargeProblem",2,13,"L","C",1,0,5,8,13,0,NA,NA,0,1,"arithmetic"
"Arithmetic_Run1",4,1,"05-12-2015",17:33:22,4,3,"LargeProblem",3,11,"L","C",1,0,2,9,11,1,1,1,5014,1,"arithmetic"
"Arithmetic_Run1",4,1,"05-12-2015",17:33:22,4,3,"LargeProblem",4,13,"L","I",2,1,6,7,14,0,NA,NA,0,1,"arithmetic"
"Arithmetic_Run1",4,1,"05-12-2015",17:33:22,4,3,"LargeProblem",5,11,"L","C",1,0,7,4,11,1,1,1,210,1,"arithmetic"
"Arithmetic_Run1",4,1,"05-12-2015",17:33:22,4,3,"LargeProblem",6,11,"L","I",2,2,8,3,13,1,2,2,5985,1,"arithmetic"
"Arithmetic_Run1",4,1,"05-12-2015",17:33:22,5,4,"LargeProblem",1,11,"L","I",2,2,5,6,13,0,NA,NA,0,1,"arithmetic"
"Arithmetic_Run1",4,1,"05-12-2015",17:33:22,5,4,"LargeProblem",2,12,"L","I",2,1,3,9,13,0,NA,NA,0,1,"arithmetic"
"Arithmetic_Run1",4,1,"05-12-2015",17:33:22,5,4,"LargeProblem",3,13,"L","I",2,1,9,4,14,0,NA,NA,0,1,"arithmetic"
"Arithmetic_Run1",4,1,"05-12-2015",17:33:22,5,4,"LargeProblem",4,14,"L","I",2,2,9,5,16,0,NA,NA,0,1,"arithmetic"
"Arithmetic_Run1",4,1,"05-12-2015",17:33:22,5,4,"LargeProblem",5,12,"L","C",1,0,4,8,12,1,1,1,5394,1,"arithmetic"
"Arithmetic_Run1",4,1,"05-12-2015",17:33:22,5,4,"LargeProblem",6,14,"L","C",1,0,8,6,14,0,1,2,5936,1,"arithmetic"
"Arithmetic_Run1",4,1,"05-12-2015",17:33:22,6,5,"Plus1",1,8,"Plus1","I",2,1,7,1,9,0,NA,NA,0,1,"arithmetic"
"Arithmetic_Run1",4,1,"05-12-2015",17:33:22,6,5,"Plus1",2,5,"Plus1","C",1,0,4,1,5,1,1,1,2825,1,"arithmetic"
"Arithmetic_Run1",4,1,"05-12-2015",17:33:22,6,5,"Plus1",3,4,"Plus1","I",2,1,3,1,5,1,2,2,3266,1,"arithmetic"
"Arithmetic_Run1",4,1,"05-12-2015",17:33:22,6,5,"Plus1",4,7,"Plus1","C",1,0,6,1,7,1,1,1,4658,1,"arithmetic"
"Arithmetic_Run1",4,1,"05-12-2015",17:33:22,6,5,"Plus1",5,9,"Plus1","I",2,2,8,1,11,0,NA,NA,0,1,"arithmetic"
"Arithmetic_Run1",4,1,"05-12-2015",17:33:22,6,5,"Plus1",6,4,"Plus1","C",1,0,3,1,4,0,NA,NA,0,1,"arithmetic"
"Arithmetic_Run2",4,1,"05-12-2015",17:39:10,1,2,"SmallProblem",1,10,"S","C",1,0,3,7,10,1,1,1,2597,2,"arithmetic"
"Arithmetic_Run2",4,1,"05-12-2015",17:39:10,1,2,"SmallProblem",2,6,"S","C",1,0,2,4,6,1,1,1,5058,2,"arithmetic"
"Arithmetic_Run2",4,1,"05-12-2015",17:39:10,1,2,"SmallProblem",3,9,"S","I",2,2,6,3,11,0,NA,NA,0,2,"arithmetic"
"Arithmetic_Run2",4,1,"05-12-2015",17:39:10,1,2,"SmallProblem",4,7,"S","C",1,0,4,3,7,0,1,2,5564,2,"arithmetic"
"Arithmetic_Run2",4,1,"05-12-2015",17:39:10,1,2,"SmallProblem",5,9,"S","I",2,1,7,2,10,1,2,2,3374,2,"arithmetic"
"Arithmetic_Run2",4,1,"05-12-2015",17:39:10,1,2,"SmallProblem",6,10,"S","C",1,0,2,8,10,1,1,1,3839,2,"arithmetic"
"Arithmetic_Run2",4,1,"05-12-2015",17:39:10,2,4,"LargeProblem",1,13,"L","C",1,0,4,9,13,0,NA,NA,0,2,"arithmetic"
"Arithmetic_Run2",4,1,"05-12-2015",17:39:10,2,4,"LargeProblem",2,11,"L","C",1,0,3,8,11,0,NA,NA,0,2,"arithmetic"
"Arithmetic_Run2",4,1,"05-12-2015",17:39:10,2,4,"LargeProblem",3,11,"L","C",1,0,6,5,11,1,1,1,4237,2,"arithmetic"
"Arithmetic_Run2",4,1,"05-12-2015",17:39:10,2,4,"LargeProblem",4,12,"L","C",1,0,9,3,12,1,1,1,1745,2,"arithmetic"
"Arithmetic_Run2",4,1,"05-12-2015",17:39:10,2,4,"LargeProblem",5,12,"L","I",2,1,8,4,13,1,2,2,4445,2,"arithmetic"
"Arithmetic_Run2",4,1,"05-12-2015",17:39:10,2,4,"LargeProblem",6,14,"L","C",1,0,5,9,14,0,1,2,4640,2,"arithmetic"
"Arithmetic_Run2",4,1,"05-12-2015",17:39:10,3,6,"SmallProblem",1,8,"S","I",2,1,2,6,9,0,NA,NA,0,2,"arithmetic"
"Arithmetic_Run2",4,1,"05-12-2015",17:39:10,3,6,"SmallProblem",2,5,"S","I",2,2,3,2,7,1,2,2,95,2,"arithmetic"
"Arithmetic_Run2",4,1,"05-12-2015",17:39:10,3,6,"SmallProblem",3,7,"S","C",1,0,5,2,7,1,1,1,4602,2,"arithmetic"
"Arithmetic_Run2",4,1,"05-12-2015",17:39:10,3,6,"SmallProblem",4,9,"S","C",1,0,5,4,9,1,1,1,3474,2,"arithmetic"
"Arithmetic_Run2",4,1,"05-12-2015",17:39:10,3,6,"SmallProblem",5,8,"S","I",2,2,3,5,10,0,NA,NA,0,2,"arithmetic"
"Arithmetic_Run2",4,1,"05-12-2015",17:39:10,3,6,"SmallProblem",6,10,"S","I",2,1,4,6,11,1,2,2,40,2,"arithmetic"
"Arithmetic_Run2",4,1,"05-12-2015",17:39:10,4,5,"Plus1",1,6,"Plus1","I",2,1,5,1,7,1,2,2,5703,2,"arithmetic"
"Arithmetic_Run2",4,1,"05-12-2015",17:39:10,4,5,"Plus1",2,5,"Plus1","I",2,2,4,1,7,0,NA,NA,0,2,"arithmetic"
"Arithmetic_Run2",4,1,"05-12-2015",17:39:10,4,5,"Plus1",3,7,"Plus1","I",2,1,6,1,8,0,NA,NA,0,2,"arithmetic"
"Arithmetic_Run2",4,1,"05-12-2015",17:39:10,4,5,"Plus1",4,7,"Plus1","C",1,0,6,1,7,1,1,1,2767,2,"arithmetic"
"Arithmetic_Run2",4,1,"05-12-2015",17:39:10,4,5,"Plus1",5,6,"Plus1","C",1,0,5,1,6,1,1,1,3579,2,"arithmetic"
"Arithmetic_Run2",4,1,"05-12-2015",17:39:10,4,5,"Plus1",6,3,"Plus1","C",1,0,2,1,3,0,NA,NA,0,2,"arithmetic"
"Arithmetic_Run2",4,1,"05-12-2015",17:39:10,5,3,"LargeProblem",1,11,"L","I",2,1,4,7,12,0,NA,NA,0,2,"arithmetic"
"Arithmetic_Run2",4,1,"05-12-2015",17:39:10,5,3,"LargeProblem",2,14,"L","I",2,1,6,8,15,0,NA,NA,0,2,"arithmetic"
"Arithmetic_Run2",4,1,"05-12-2015",17:39:10,5,3,"LargeProblem",3,13,"L","C",1,0,7,6,13,0,NA,NA,0,2,"arithmetic"
"Arithmetic_Run2",4,1,"05-12-2015",17:39:10,5,3,"LargeProblem",4,11,"L","I",2,2,9,2,13,0,NA,NA,0,2,"arithmetic"
"Arithmetic_Run2",4,1,"05-12-2015",17:39:10,5,3,"LargeProblem",5,13,"L","I",2,2,8,5,15,1,2,2,248,2,"arithmetic"
"Arithmetic_Run2",4,1,"05-12-2015",17:39:10,5,3,"LargeProblem",6,12,"L","I",2,2,5,7,14,0,NA,NA,0,2,"arithmetic"
"Arithmetic_Run2",4,1,"05-12-2015",17:39:10,6,1,"Plus1",1,4,"Plus1","C",1,0,3,1,4,0,NA,NA,0,2,"arithmetic"
"Arithmetic_Run2",4,1,"05-12-2015",17:39:10,6,1,"Plus1",2,8,"Plus1","C",1,0,7,1,8,1,1,1,4275,2,"arithmetic"
"Arithmetic_Run2",4,1,"05-12-2015",17:39:10,6,1,"Plus1",3,9,"Plus1","I",2,2,8,1,11,0,NA,NA,0,2,"arithmetic"
"Arithmetic_Run2",4,1,"05-12-2015",17:39:10,6,1,"Plus1",4,10,"Plus1","I",2,2,9,1,12,1,2,2,3613,2,"arithmetic"
"Arithmetic_Run2",4,1,"05-12-2015",17:39:10,6,1,"Plus1",5,3,"Plus1","I",2,1,2,1,4,1,2,2,4005,2,"arithmetic"
"Arithmetic_Run2",4,1,"05-12-2015",17:39:10,6,1,"Plus1",6,10,"Plus1","C",1,0,9,1,10,1,1,1,3564,2,"arithmetic"
"Arithmetic_Run1",5,1,"05-12-2015",18:10:27,1,1,"Plus1",1,5,"Plus1","I",2,1,4,1,6,1,2,2,1695,1,"arithmetic"
"Arithmetic_Run1",5,1,"05-12-2015",18:10:27,1,1,"Plus1",2,5,"Plus1","C",1,0,4,1,5,1,1,1,1365,1,"arithmetic"
"Arithmetic_Run1",5,1,"05-12-2015",18:10:27,1,1,"Plus1",3,10,"Plus1","I",2,2,9,1,12,1,2,2,1538,1,"arithmetic"
"Arithmetic_Run1",5,1,"05-12-2015",18:10:27,1,1,"Plus1",4,9,"Plus1","C",1,0,8,1,9,1,1,1,1513,1,"arithmetic"
"Arithmetic_Run1",5,1,"05-12-2015",18:10:27,1,1,"Plus1",5,8,"Plus1","I",2,1,7,1,9,1,2,2,1376,1,"arithmetic"
"Arithmetic_Run1",5,1,"05-12-2015",18:10:27,1,1,"Plus1",6,8,"Plus1","C",1,0,7,1,8,1,1,1,1951,1,"arithmetic"
"Arithmetic_Run1",5,1,"05-12-2015",18:10:27,2,4,"LargeProblem",1,11,"L","I",2,2,5,6,13,1,2,2,2154,1,"arithmetic"
"Arithmetic_Run1",5,1,"05-12-2015",18:10:27,2,4,"LargeProblem",2,12,"L","C",1,0,7,5,12,1,1,1,3099,1,"arithmetic"
"Arithmetic_Run1",5,1,"05-12-2015",18:10:27,2,4,"LargeProblem",3,13,"L","I",2,1,6,7,14,1,2,2,1523,1,"arithmetic"
"Arithmetic_Run1",5,1,"05-12-2015",18:10:27,2,4,"LargeProblem",4,11,"L","C",1,0,2,9,11,1,1,1,1281,1,"arithmetic"
"Arithmetic_Run1",5,1,"05-12-2015",18:10:27,2,4,"LargeProblem",5,13,"L","C",1,0,5,8,13,1,1,1,1422,1,"arithmetic"
"Arithmetic_Run1",5,1,"05-12-2015",18:10:27,2,4,"LargeProblem",6,11,"L","I",2,2,8,3,13,1,2,2,2212,1,"arithmetic"
"Arithmetic_Run1",5,1,"05-12-2015",18:10:27,3,6,"SmallProblem",1,9,"S","C",1,0,2,7,9,1,1,1,1792,1,"arithmetic"
"Arithmetic_Run1",5,1,"05-12-2015",18:10:27,3,6,"SmallProblem",2,10,"S","C",1,0,6,4,10,1,1,1,941,1,"arithmetic"
"Arithmetic_Run1",5,1,"05-12-2015",18:10:27,3,6,"SmallProblem",3,5,"S","C",1,0,2,3,5,1,1,1,1199,1,"arithmetic"
"Arithmetic_Run1",5,1,"05-12-2015",18:10:27,3,6,"SmallProblem",4,10,"S","I",2,2,7,3,12,1,2,2,1866,1,"arithmetic"
"Arithmetic_Run1",5,1,"05-12-2015",18:10:27,3,6,"SmallProblem",5,10,"S","I",2,1,8,2,11,1,2,2,2156,1,"arithmetic"
"Arithmetic_Run1",5,1,"05-12-2015",18:10:27,3,6,"SmallProblem",6,8,"S","C",1,0,6,2,8,1,1,1,1435,1,"arithmetic"
"Arithmetic_Run1",5,1,"05-12-2015",18:10:27,4,5,"Plus1",1,9,"Plus1","I",2,2,8,1,11,1,2,2,1673,1,"arithmetic"
"Arithmetic_Run1",5,1,"05-12-2015",18:10:27,4,5,"Plus1",2,3,"Plus1","C",1,0,2,1,3,1,1,1,974,1,"arithmetic"
"Arithmetic_Run1",5,1,"05-12-2015",18:10:27,4,5,"Plus1",3,7,"Plus1","C",1,0,6,1,7,1,1,1,1106,1,"arithmetic"
"Arithmetic_Run1",5,1,"05-12-2015",18:10:27,4,5,"Plus1",4,4,"Plus1","C",1,0,3,1,4,1,1,1,961,1,"arithmetic"
"Arithmetic_Run1",5,1,"05-12-2015",18:10:27,4,5,"Plus1",5,4,"Plus1","I",2,1,3,1,5,1,2,2,1424,1,"arithmetic"
"Arithmetic_Run1",5,1,"05-12-2015",18:10:27,4,5,"Plus1",6,6,"Plus1","I",2,2,5,1,8,1,2,2,2071,1,"arithmetic"
"Arithmetic_Run1",5,1,"05-12-2015",18:10:27,5,2,"SmallProblem",1,7,"S","I",2,2,3,4,9,1,2,2,2162,1,"arithmetic"
"Arithmetic_Run1",5,1,"05-12-2015",18:10:27,5,2,"SmallProblem",2,9,"S","C",1,0,3,6,9,1,1,1,1281,1,"arithmetic"
"Arithmetic_Run1",5,1,"05-12-2015",18:10:27,5,2,"SmallProblem",3,9,"S","I",2,1,4,5,10,1,2,2,1312,1,"arithmetic"
"Arithmetic_Run1",5,1,"05-12-2015",18:10:27,5,2,"SmallProblem",4,7,"S","I",2,1,2,5,8,1,2,2,1615,1,"arithmetic"
"Arithmetic_Run1",5,1,"05-12-2015",18:10:27,5,2,"SmallProblem",5,6,"S","I",2,2,4,2,8,1,2,2,1778,1,"arithmetic"
"Arithmetic_Run1",5,1,"05-12-2015",18:10:27,5,2,"SmallProblem",6,8,"S","C",1,0,5,3,8,1,1,1,1278,1,"arithmetic"
"Arithmetic_Run1",5,1,"05-12-2015",18:10:27,6,3,"LargeProblem",1,13,"L","I",2,1,9,4,14,1,2,2,2325,1,"arithmetic"
"Arithmetic_Run1",5,1,"05-12-2015",18:10:27,6,3,"LargeProblem",2,11,"L","C",1,0,7,4,11,1,1,1,1296,1,"arithmetic"
"Arithmetic_Run1",5,1,"05-12-2015",18:10:27,6,3,"LargeProblem",3,12,"L","I",2,1,3,9,13,1,2,2,3404,1,"arithmetic"
"Arithmetic_Run1",5,1,"05-12-2015",18:10:27,6,3,"LargeProblem",4,12,"L","C",1,0,4,8,12,1,1,1,1395,1,"arithmetic"
"Arithmetic_Run1",5,1,"05-12-2015",18:10:27,6,3,"LargeProblem",5,14,"L","I",2,2,9,5,16,1,2,2,1797,1,"arithmetic"
"Arithmetic_Run1",5,1,"05-12-2015",18:10:27,6,3,"LargeProblem",6,14,"L","C",1,0,8,6,14,1,1,1,1105,1,"arithmetic"
"Arithmetic_Run2",5,1,"05-12-2015",18:15:46,1,5,"Plus1",1,10,"Plus1","C",1,0,9,1,10,1,1,1,1255,2,"arithmetic"
"Arithmetic_Run2",5,1,"05-12-2015",18:15:46,1,5,"Plus1",2,7,"Plus1","I",2,1,6,1,8,1,2,2,1074,2,"arithmetic"
"Arithmetic_Run2",5,1,"05-12-2015",18:15:46,1,5,"Plus1",3,3,"Plus1","I",2,1,2,1,4,1,2,2,1116,2,"arithmetic"
"Arithmetic_Run2",5,1,"05-12-2015",18:15:46,1,5,"Plus1",4,10,"Plus1","I",2,2,9,1,12,1,2,2,1482,2,"arithmetic"
"Arithmetic_Run2",5,1,"05-12-2015",18:15:46,1,5,"Plus1",5,7,"Plus1","C",1,0,6,1,7,1,1,1,1365,2,"arithmetic"
"Arithmetic_Run2",5,1,"05-12-2015",18:15:46,1,5,"Plus1",6,3,"Plus1","C",1,0,2,1,3,1,1,1,1269,2,"arithmetic"
"Arithmetic_Run2",5,1,"05-12-2015",18:15:46,2,3,"LargeProblem",1,14,"L","C",1,0,5,9,14,1,1,1,2674,2,"arithmetic"
"Arithmetic_Run2",5,1,"05-12-2015",18:15:46,2,3,"LargeProblem",2,13,"L","I",2,2,8,5,15,1,2,2,1612,2,"arithmetic"
"Arithmetic_Run2",5,1,"05-12-2015",18:15:46,2,3,"LargeProblem",3,12,"L","C",1,0,9,3,12,1,1,1,1932,2,"arithmetic"
"Arithmetic_Run2",5,1,"05-12-2015",18:15:46,2,3,"LargeProblem",4,14,"L","I",2,1,6,8,15,1,2,2,1772,2,"arithmetic"
"Arithmetic_Run2",5,1,"05-12-2015",18:15:46,2,3,"LargeProblem",5,13,"L","C",1,0,4,9,13,1,1,1,1269,2,"arithmetic"
"Arithmetic_Run2",5,1,"05-12-2015",18:15:46,2,3,"LargeProblem",6,12,"L","I",2,1,8,4,13,1,2,2,2405,2,"arithmetic"
"Arithmetic_Run2",5,1,"05-12-2015",18:15:46,3,6,"SmallProblem",1,7,"S","C",1,0,5,2,7,1,1,1,1502,2,"arithmetic"
"Arithmetic_Run2",5,1,"05-12-2015",18:15:46,3,6,"SmallProblem",2,10,"S","C",1,0,2,8,10,1,1,1,1397,2,"arithmetic"
"Arithmetic_Run2",5,1,"05-12-2015",18:15:46,3,6,"SmallProblem",3,7,"S","C",1,0,4,3,7,1,1,1,1194,2,"arithmetic"
"Arithmetic_Run2",5,1,"05-12-2015",18:15:46,3,6,"SmallProblem",4,9,"S","I",2,1,7,2,10,1,2,2,1226,2,"arithmetic"
"Arithmetic_Run2",5,1,"05-12-2015",18:15:46,3,6,"SmallProblem",5,10,"S","C",1,0,3,7,10,1,1,1,819,2,"arithmetic"
"Arithmetic_Run2",5,1,"05-12-2015",18:15:46,3,6,"SmallProblem",6,6,"S","C",1,0,2,4,6,0,1,2,1088,2,"arithmetic"
"Arithmetic_Run2",5,1,"05-12-2015",18:15:46,4,2,"SmallProblem",1,8,"S","I",2,1,2,6,9,1,2,2,2598,2,"arithmetic"
"Arithmetic_Run2",5,1,"05-12-2015",18:15:46,4,2,"SmallProblem",2,5,"S","I",2,2,3,2,7,1,2,2,1239,2,"arithmetic"
"Arithmetic_Run2",5,1,"05-12-2015",18:15:46,4,2,"SmallProblem",3,9,"S","C",1,0,5,4,9,1,1,1,1160,2,"arithmetic"
"Arithmetic_Run2",5,1,"05-12-2015",18:15:46,4,2,"SmallProblem",4,9,"S","I",2,2,6,3,11,1,2,2,1560,2,"arithmetic"
"Arithmetic_Run2",5,1,"05-12-2015",18:15:46,4,2,"SmallProblem",5,8,"S","I",2,2,3,5,10,1,2,2,1306,2,"arithmetic"
"Arithmetic_Run2",5,1,"05-12-2015",18:15:46,4,2,"SmallProblem",6,10,"S","I",2,1,4,6,11,0,2,1,513,2,"arithmetic"
"Arithmetic_Run2",5,1,"05-12-2015",18:15:46,5,4,"LargeProblem",1,11,"L","I",2,2,9,2,13,1,2,2,1503,2,"arithmetic"
"Arithmetic_Run2",5,1,"05-12-2015",18:15:46,5,4,"LargeProblem",2,11,"L","C",1,0,3,8,11,0,1,2,2205,2,"arithmetic"
"Arithmetic_Run2",5,1,"05-12-2015",18:15:46,5,4,"LargeProblem",3,12,"L","I",2,2,5,7,14,1,2,2,5270,2,"arithmetic"
"Arithmetic_Run2",5,1,"05-12-2015",18:15:46,5,4,"LargeProblem",4,11,"L","C",1,0,6,5,11,1,1,1,1517,2,"arithmetic"
"Arithmetic_Run2",5,1,"05-12-2015",18:15:46,5,4,"LargeProblem",5,13,"L","C",1,0,7,6,13,1,1,1,1302,2,"arithmetic"
"Arithmetic_Run2",5,1,"05-12-2015",18:15:46,5,4,"LargeProblem",6,11,"L","I",2,1,4,7,12,1,2,2,4520,2,"arithmetic"
"Arithmetic_Run2",5,1,"05-12-2015",18:15:46,6,1,"Plus1",1,4,"Plus1","C",1,0,3,1,4,1,1,1,1450,2,"arithmetic"
"Arithmetic_Run2",5,1,"05-12-2015",18:15:46,6,1,"Plus1",2,9,"Plus1","I",2,2,8,1,11,1,2,2,1393,2,"arithmetic"
"Arithmetic_Run2",5,1,"05-12-2015",18:15:46,6,1,"Plus1",3,8,"Plus1","C",1,0,7,1,8,1,1,1,1175,2,"arithmetic"
"Arithmetic_Run2",5,1,"05-12-2015",18:15:46,6,1,"Plus1",4,6,"Plus1","C",1,0,5,1,6,1,1,1,1081,2,"arithmetic"
"Arithmetic_Run2",5,1,"05-12-2015",18:15:46,6,1,"Plus1",5,6,"Plus1","I",2,1,5,1,7,1,2,2,1154,2,"arithmetic"
"Arithmetic_Run2",5,1,"05-12-2015",18:15:46,6,1,"Plus1",6,5,"Plus1","I",2,2,4,1,7,1,2,2,1247,2,"arithmetic"
"Arithmetic_Run2",5,2,"05-12-2015",18:33:36,1,2,"SmallProblem",1,8,"S","I",2,1,2,6,9,1,2,2,1326,2,"arithmetic"
"Arithmetic_Run2",5,2,"05-12-2015",18:33:36,1,2,"SmallProblem",2,8,"S","I",2,2,3,5,10,1,2,2,1179,2,"arithmetic"
"Arithmetic_Run2",5,2,"05-12-2015",18:33:36,1,2,"SmallProblem",3,9,"S","C",1,0,5,4,9,1,1,1,1179,2,"arithmetic"
"Arithmetic_Run2",5,2,"05-12-2015",18:33:36,1,2,"SmallProblem",4,6,"S","C",1,0,2,4,6,1,1,1,1023,2,"arithmetic"
"Arithmetic_Run2",5,2,"05-12-2015",18:33:36,1,2,"SmallProblem",5,7,"S","C",1,0,4,3,7,1,1,1,1282,2,"arithmetic"
"Arithmetic_Run2",5,2,"05-12-2015",18:33:36,1,2,"SmallProblem",6,10,"S","C",1,0,2,8,10,1,1,1,1414,2,"arithmetic"
"Arithmetic_Run2",5,2,"05-12-2015",18:33:36,2,4,"LargeProblem",1,12,"L","I",2,2,5,7,14,1,2,2,1503,2,"arithmetic"
"Arithmetic_Run2",5,2,"05-12-2015",18:33:36,2,4,"LargeProblem",2,13,"L","C",1,0,4,9,13,1,1,1,1559,2,"arithmetic"
"Arithmetic_Run2",5,2,"05-12-2015",18:33:36,2,4,"LargeProblem",3,11,"L","C",1,0,6,5,11,1,1,1,1243,2,"arithmetic"
"Arithmetic_Run2",5,2,"05-12-2015",18:33:36,2,4,"LargeProblem",4,14,"L","C",1,0,5,9,14,1,1,1,1506,2,"arithmetic"
"Arithmetic_Run2",5,2,"05-12-2015",18:33:36,2,4,"LargeProblem",5,13,"L","C",1,0,7,6,13,1,1,1,1087,2,"arithmetic"
"Arithmetic_Run2",5,2,"05-12-2015",18:33:36,2,4,"LargeProblem",6,12,"L","C",1,0,9,3,12,1,1,1,1508,2,"arithmetic"
"Arithmetic_Run2",5,2,"05-12-2015",18:33:36,3,3,"LargeProblem",1,14,"L","I",2,1,6,8,15,1,2,2,1698,2,"arithmetic"
"Arithmetic_Run2",5,2,"05-12-2015",18:33:36,3,3,"LargeProblem",2,11,"L","I",2,1,4,7,12,1,2,2,2947,2,"arithmetic"
"Arithmetic_Run2",5,2,"05-12-2015",18:33:36,3,3,"LargeProblem",3,11,"L","I",2,2,9,2,13,1,2,2,2043,2,"arithmetic"
"Arithmetic_Run2",5,2,"05-12-2015",18:33:36,3,3,"LargeProblem",4,13,"L","I",2,2,8,5,15,1,2,2,1486,2,"arithmetic"
"Arithmetic_Run2",5,2,"05-12-2015",18:33:36,3,3,"LargeProblem",5,11,"L","C",1,0,3,8,11,1,1,1,1882,2,"arithmetic"
"Arithmetic_Run2",5,2,"05-12-2015",18:33:36,3,3,"LargeProblem",6,12,"L","I",2,1,8,4,13,1,2,2,1705,2,"arithmetic"
"Arithmetic_Run2",5,2,"05-12-2015",18:33:36,4,1,"Plus1",1,6,"Plus1","I",2,1,5,1,7,1,2,2,1760,2,"arithmetic"
"Arithmetic_Run2",5,2,"05-12-2015",18:33:36,4,1,"Plus1",2,3,"Plus1","C",1,0,2,1,3,1,1,1,1761,2,"arithmetic"
"Arithmetic_Run2",5,2,"05-12-2015",18:33:36,4,1,"Plus1",3,7,"Plus1","I",2,1,6,1,8,1,2,2,1422,2,"arithmetic"
"Arithmetic_Run2",5,2,"05-12-2015",18:33:36,4,1,"Plus1",4,7,"Plus1","C",1,0,6,1,7,1,1,1,2167,2,"arithmetic"
"Arithmetic_Run2",5,2,"05-12-2015",18:33:36,4,1,"Plus1",5,5,"Plus1","I",2,2,4,1,7,1,2,2,1365,2,"arithmetic"
"Arithmetic_Run2",5,2,"05-12-2015",18:33:36,4,1,"Plus1",6,10,"Plus1","I",2,2,9,1,12,1,2,2,1140,2,"arithmetic"
"Arithmetic_Run2",5,2,"05-12-2015",18:33:36,5,6,"SmallProblem",1,7,"S","C",1,0,5,2,7,1,1,1,1167,2,"arithmetic"
"Arithmetic_Run2",5,2,"05-12-2015",18:33:36,5,6,"SmallProblem",2,5,"S","I",2,2,3,2,7,1,2,2,1183,2,"arithmetic"
"Arithmetic_Run2",5,2,"05-12-2015",18:33:36,5,6,"SmallProblem",3,10,"S","C",1,0,3,7,10,1,1,1,1405,2,"arithmetic"
"Arithmetic_Run2",5,2,"05-12-2015",18:33:36,5,6,"SmallProblem",4,10,"S","I",2,1,4,6,11,1,2,2,1378,2,"arithmetic"
"Arithmetic_Run2",5,2,"05-12-2015",18:33:36,5,6,"SmallProblem",5,9,"S","I",2,1,7,2,10,1,2,2,1311,2,"arithmetic"
"Arithmetic_Run2",5,2,"05-12-2015",18:33:36,5,6,"SmallProblem",6,9,"S","I",2,2,6,3,11,1,2,2,1176,2,"arithmetic"
"Arithmetic_Run2",5,2,"05-12-2015",18:33:36,6,5,"Plus1",1,6,"Plus1","C",1,0,5,1,6,1,1,1,1696,2,"arithmetic"
"Arithmetic_Run2",5,2,"05-12-2015",18:33:36,6,5,"Plus1",2,4,"Plus1","C",1,0,3,1,4,1,1,1,1118,2,"arithmetic"
"Arithmetic_Run2",5,2,"05-12-2015",18:33:36,6,5,"Plus1",3,10,"Plus1","C",1,0,9,1,10,1,1,1,1026,2,"arithmetic"
"Arithmetic_Run2",5,2,"05-12-2015",18:33:36,6,5,"Plus1",4,8,"Plus1","C",1,0,7,1,8,1,1,1,1166,2,"arithmetic"
"Arithmetic_Run2",5,2,"05-12-2015",18:33:36,6,5,"Plus1",5,9,"Plus1","I",2,2,8,1,11,1,2,2,1105,2,"arithmetic"
"Arithmetic_Run2",5,2,"05-12-2015",18:33:36,6,5,"Plus1",6,3,"Plus1","I",2,1,2,1,4,1,2,2,884,2,"arithmetic"
"Arithmetic_Run1",6,1,"05-23-2015",14:16:01,1,1,"Plus1",1,8,"Plus1","C",1,0,7,1,8,1,1,1,2325,1,"arithmetic"
"Arithmetic_Run1",6,1,"05-23-2015",14:16:01,1,1,"Plus1",2,9,"Plus1","C",1,0,8,1,9,1,1,1,1906,1,"arithmetic"
"Arithmetic_Run1",6,1,"05-23-2015",14:16:01,1,1,"Plus1",3,7,"Plus1","C",1,0,6,1,7,1,1,1,1687,1,"arithmetic"
"Arithmetic_Run1",6,1,"05-23-2015",14:16:01,1,1,"Plus1",4,5,"Plus1","C",1,0,4,1,5,1,1,1,1847,1,"arithmetic"
"Arithmetic_Run1",6,1,"05-23-2015",14:16:01,1,1,"Plus1",5,9,"Plus1","I",2,2,8,1,11,1,2,2,1473,1,"arithmetic"
"Arithmetic_Run1",6,1,"05-23-2015",14:16:01,1,1,"Plus1",6,4,"Plus1","I",2,1,3,1,5,1,2,2,2306,1,"arithmetic"
"Arithmetic_Run1",6,1,"05-23-2015",14:16:01,2,3,"LargeProblem",1,11,"L","I",2,2,5,6,13,1,2,2,3161,1,"arithmetic"
"Arithmetic_Run1",6,1,"05-23-2015",14:16:01,2,3,"LargeProblem",2,13,"L","I",2,1,9,4,14,0,NA,NA,0,1,"arithmetic"
"Arithmetic_Run1",6,1,"05-23-2015",14:16:01,2,3,"LargeProblem",3,13,"L","I",2,1,6,7,14,1,2,2,3248,1,"arithmetic"
"Arithmetic_Run1",6,1,"05-23-2015",14:16:01,2,3,"LargeProblem",4,14,"L","C",1,0,8,6,14,1,1,1,3499,1,"arithmetic"
"Arithmetic_Run1",6,1,"05-23-2015",14:16:01,2,3,"LargeProblem",5,14,"L","I",2,2,9,5,16,1,2,2,2282,1,"arithmetic"
"Arithmetic_Run1",6,1,"05-23-2015",14:16:01,2,3,"LargeProblem",6,12,"L","C",1,0,4,8,12,0,NA,NA,0,1,"arithmetic"
"Arithmetic_Run1",6,1,"05-23-2015",14:16:01,3,5,"Plus1",1,6,"Plus1","I",2,2,5,1,8,1,2,2,2401,1,"arithmetic"
"Arithmetic_Run1",6,1,"05-23-2015",14:16:01,3,5,"Plus1",2,10,"Plus1","I",2,2,9,1,12,1,2,2,2085,1,"arithmetic"
"Arithmetic_Run1",6,1,"05-23-2015",14:16:01,3,5,"Plus1",3,3,"Plus1","C",1,0,2,1,3,1,1,1,2275,1,"arithmetic"
"Arithmetic_Run1",6,1,"05-23-2015",14:16:01,3,5,"Plus1",4,5,"Plus1","I",2,1,4,1,6,1,2,2,4723,1,"arithmetic"
"Arithmetic_Run1",6,1,"05-23-2015",14:16:01,3,5,"Plus1",5,4,"Plus1","C",1,0,3,1,4,1,1,1,3089,1,"arithmetic"
"Arithmetic_Run1",6,1,"05-23-2015",14:16:01,3,5,"Plus1",6,8,"Plus1","I",2,1,7,1,9,1,2,2,2944,1,"arithmetic"
"Arithmetic_Run1",6,1,"05-23-2015",14:16:01,4,6,"SmallProblem",1,8,"S","C",1,0,5,3,8,0,NA,NA,0,1,"arithmetic"
"Arithmetic_Run1",6,1,"05-23-2015",14:16:01,4,6,"SmallProblem",2,8,"S","C",1,0,6,2,8,0,1,2,3986,1,"arithmetic"
"Arithmetic_Run1",6,1,"05-23-2015",14:16:01,4,6,"SmallProblem",3,10,"S","I",2,1,8,2,11,1,2,2,1841,1,"arithmetic"
"Arithmetic_Run1",6,1,"05-23-2015",14:16:01,4,6,"SmallProblem",4,6,"S","I",2,2,4,2,8,0,2,1,1216,1,"arithmetic"
"Arithmetic_Run1",6,1,"05-23-2015",14:16:01,4,6,"SmallProblem",5,10,"S","C",1,0,6,4,10,0,NA,NA,0,1,"arithmetic"
"Arithmetic_Run1",6,1,"05-23-2015",14:16:01,4,6,"SmallProblem",6,9,"S","C",1,0,3,6,9,0,NA,NA,0,1,"arithmetic"
"Arithmetic_Run1",6,1,"05-23-2015",14:16:01,5,2,"SmallProblem",1,7,"S","I",2,2,3,4,9,1,2,2,2139,1,"arithmetic"
"Arithmetic_Run1",6,1,"05-23-2015",14:16:01,5,2,"SmallProblem",2,7,"S","I",2,1,2,5,8,1,2,2,3239,1,"arithmetic"
"Arithmetic_Run1",6,1,"05-23-2015",14:16:01,5,2,"SmallProblem",3,9,"S","I",2,1,4,5,10,0,2,1,4021,1,"arithmetic"
"Arithmetic_Run1",6,1,"05-23-2015",14:16:01,5,2,"SmallProblem",4,10,"S","I",2,2,7,3,12,1,2,2,3314,1,"arithmetic"
"Arithmetic_Run1",6,1,"05-23-2015",14:16:01,5,2,"SmallProblem",5,9,"S","C",1,0,2,7,9,0,1,2,2385,1,"arithmetic"
"Arithmetic_Run1",6,1,"05-23-2015",14:16:01,5,2,"SmallProblem",6,5,"S","C",1,0,2,3,5,1,1,1,3293,1,"arithmetic"
"Arithmetic_Run1",6,1,"05-23-2015",14:16:01,6,4,"LargeProblem",1,13,"L","C",1,0,5,8,13,0,1,2,2113,1,"arithmetic"
"Arithmetic_Run1",6,1,"05-23-2015",14:16:01,6,4,"LargeProblem",2,11,"L","C",1,0,7,4,11,0,NA,NA,0,1,"arithmetic"
"Arithmetic_Run1",6,1,"05-23-2015",14:16:01,6,4,"LargeProblem",3,12,"L","C",1,0,7,5,12,0,1,2,700,1,"arithmetic"
"Arithmetic_Run1",6,1,"05-23-2015",14:16:01,6,4,"LargeProblem",4,11,"L","I",2,2,8,3,13,0,NA,NA,0,1,"arithmetic"
"Arithmetic_Run1",6,1,"05-23-2015",14:16:01,6,4,"LargeProblem",5,11,"L","C",1,0,2,9,11,0,1,2,589,1,"arithmetic"
"Arithmetic_Run1",6,1,"05-23-2015",14:16:01,6,4,"LargeProblem",6,12,"L","I",2,1,3,9,13,1,2,2,4666,1,"arithmetic"
"Arithmetic_Run1",6,2,"05-23-2015",14:45:41,1,4,"LargeProblem",1,12,"L","C",1,0,7,5,12,1,1,1,4375,1,"arithmetic"
"Arithmetic_Run1",6,2,"05-23-2015",14:45:41,1,4,"LargeProblem",2,11,"L","C",1,0,2,9,11,1,1,1,3205,1,"arithmetic"
"Arithmetic_Run1",6,2,"05-23-2015",14:45:41,1,4,"LargeProblem",3,11,"L","I",2,2,8,3,13,1,2,2,2117,1,"arithmetic"
"Arithmetic_Run1",6,2,"05-23-2015",14:45:41,1,4,"LargeProblem",4,14,"L","C",1,0,8,6,14,1,1,1,2886,1,"arithmetic"
"Arithmetic_Run1",6,2,"05-23-2015",14:45:41,1,4,"LargeProblem",5,13,"L","I",2,1,9,4,14,0,2,1,2792,1,"arithmetic"
"Arithmetic_Run1",6,2,"05-23-2015",14:45:41,1,4,"LargeProblem",6,12,"L","C",1,0,4,8,12,0,1,2,2790,1,"arithmetic"
"Arithmetic_Run1",6,2,"05-23-2015",14:45:41,2,1,"Plus1",1,4,"Plus1","I",2,1,3,1,5,1,2,2,2803,1,"arithmetic"
"Arithmetic_Run1",6,2,"05-23-2015",14:45:41,2,1,"Plus1",2,9,"Plus1","C",1,0,8,1,9,1,1,1,3634,1,"arithmetic"
"Arithmetic_Run1",6,2,"05-23-2015",14:45:41,2,1,"Plus1",3,10,"Plus1","I",2,2,9,1,12,1,2,2,4484,1,"arithmetic"
"Arithmetic_Run1",6,2,"05-23-2015",14:45:41,2,1,"Plus1",4,8,"Plus1","I",2,1,7,1,9,0,2,1,2011,1,"arithmetic"
"Arithmetic_Run1",6,2,"05-23-2015",14:45:41,2,1,"Plus1",5,6,"Plus1","I",2,2,5,1,8,1,2,2,4966,1,"arithmetic"
"Arithmetic_Run1",6,2,"05-23-2015",14:45:41,2,1,"Plus1",6,8,"Plus1","C",1,0,7,1,8,0,1,2,4670,1,"arithmetic"
"Arithmetic_Run1",6,2,"05-23-2015",14:45:41,3,2,"SmallProblem",1,5,"S","C",1,0,2,3,5,1,1,1,3348,1,"arithmetic"
"Arithmetic_Run1",6,2,"05-23-2015",14:45:41,3,2,"SmallProblem",2,7,"S","I",2,1,2,5,8,1,2,2,2787,1,"arithmetic"
"Arithmetic_Run1",6,2,"05-23-2015",14:45:41,3,2,"SmallProblem",3,10,"S","I",2,1,8,2,11,0,2,1,4283,1,"arithmetic"
"Arithmetic_Run1",6,2,"05-23-2015",14:45:41,3,2,"SmallProblem",4,10,"S","I",2,2,7,3,12,0,2,1,3672,1,"arithmetic"
"Arithmetic_Run1",6,2,"05-23-2015",14:45:41,3,2,"SmallProblem",5,9,"S","C",1,0,3,6,9,0,1,2,1585,1,"arithmetic"
"Arithmetic_Run1",6,2,"05-23-2015",14:45:41,3,2,"SmallProblem",6,7,"S","I",2,2,3,4,9,0,NA,NA,0,1,"arithmetic"
"Arithmetic_Run1",6,2,"05-23-2015",14:45:41,4,3,"LargeProblem",1,12,"L","I",2,1,3,9,13,1,2,2,3741,1,"arithmetic"
"Arithmetic_Run1",6,2,"05-23-2015",14:45:41,4,3,"LargeProblem",2,11,"L","I",2,2,5,6,13,0,2,1,1968,1,"arithmetic"
"Arithmetic_Run1",6,2,"05-23-2015",14:45:41,4,3,"LargeProblem",3,13,"L","I",2,1,6,7,14,0,2,1,4853,1,"arithmetic"
"Arithmetic_Run1",6,2,"05-23-2015",14:45:41,4,3,"LargeProblem",4,14,"L","I",2,2,9,5,16,1,2,2,1446,1,"arithmetic"
"Arithmetic_Run1",6,2,"05-23-2015",14:45:41,4,3,"LargeProblem",5,13,"L","C",1,0,5,8,13,0,1,2,1015,1,"arithmetic"
"Arithmetic_Run1",6,2,"05-23-2015",14:45:41,4,3,"LargeProblem",6,11,"L","C",1,0,7,4,11,1,1,1,1574,1,"arithmetic"
"Arithmetic_Run1",6,2,"05-23-2015",14:45:41,5,5,"Plus1",1,7,"Plus1","C",1,0,6,1,7,0,1,2,1556,1,"arithmetic"
"Arithmetic_Run1",6,2,"05-23-2015",14:45:41,5,5,"Plus1",2,9,"Plus1","I",2,2,8,1,11,1,2,2,3496,1,"arithmetic"
"Arithmetic_Run1",6,2,"05-23-2015",14:45:41,5,5,"Plus1",3,3,"Plus1","C",1,0,2,1,3,1,1,1,2342,1,"arithmetic"
"Arithmetic_Run1",6,2,"05-23-2015",14:45:41,5,5,"Plus1",4,4,"Plus1","C",1,0,3,1,4,1,1,1,4201,1,"arithmetic"
"Arithmetic_Run1",6,2,"05-23-2015",14:45:41,5,5,"Plus1",5,5,"Plus1","I",2,1,4,1,6,1,2,2,2341,1,"arithmetic"
"Arithmetic_Run1",6,2,"05-23-2015",14:45:41,5,5,"Plus1",6,5,"Plus1","C",1,0,4,1,5,1,1,1,1984,1,"arithmetic"
"Arithmetic_Run1",6,2,"05-23-2015",14:45:41,6,6,"SmallProblem",1,8,"S","C",1,0,6,2,8,1,1,1,1380,1,"arithmetic"
"Arithmetic_Run1",6,2,"05-23-2015",14:45:41,6,6,"SmallProblem",2,6,"S","I",2,2,4,2,8,0,2,1,1689,1,"arithmetic"
"Arithmetic_Run1",6,2,"05-23-2015",14:45:41,6,6,"SmallProblem",3,9,"S","C",1,0,2,7,9,1,1,1,2106,1,"arithmetic"
"Arithmetic_Run1",6,2,"05-23-2015",14:45:41,6,6,"SmallProblem",4,10,"S","C",1,0,6,4,10,0,1,2,2994,1,"arithmetic"
"Arithmetic_Run1",6,2,"05-23-2015",14:45:41,6,6,"SmallProblem",5,8,"S","C",1,0,5,3,8,1,1,1,3227,1,"arithmetic"
"Arithmetic_Run1",6,2,"05-23-2015",14:45:41,6,6,"SmallProblem",6,9,"S","I",2,1,4,5,10,1,2,2,3293,1,"arithmetic"
"Arithmetic_Run2",6,1,"05-23-2015",14:23:24,1,6,"SmallProblem",1,7,"S","C",1,0,5,2,7,1,1,1,3071,2,"arithmetic"
"Arithmetic_Run2",6,1,"05-23-2015",14:23:24,1,6,"SmallProblem",2,10,"S","C",1,0,2,8,10,1,1,1,2474,2,"arithmetic"
"Arithmetic_Run2",6,1,"05-23-2015",14:23:24,1,6,"SmallProblem",3,9,"S","I",2,2,6,3,11,1,2,2,2979,2,"arithmetic"
"Arithmetic_Run2",6,1,"05-23-2015",14:23:24,1,6,"SmallProblem",4,9,"S","C",1,0,5,4,9,1,1,1,3067,2,"arithmetic"
"Arithmetic_Run2",6,1,"05-23-2015",14:23:24,1,6,"SmallProblem",5,7,"S","C",1,0,4,3,7,1,1,1,3993,2,"arithmetic"
"Arithmetic_Run2",6,1,"05-23-2015",14:23:24,1,6,"SmallProblem",6,5,"S","I",2,2,3,2,7,0,2,1,2886,2,"arithmetic"
"Arithmetic_Run2",6,1,"05-23-2015",14:23:24,2,1,"Plus1",1,7,"Plus1","I",2,1,6,1,8,0,NA,NA,0,2,"arithmetic"
"Arithmetic_Run2",6,1,"05-23-2015",14:23:24,2,1,"Plus1",2,4,"Plus1","C",1,0,3,1,4,0,1,2,7,2,"arithmetic"
"Arithmetic_Run2",6,1,"05-23-2015",14:23:24,2,1,"Plus1",3,9,"Plus1","I",2,2,8,1,11,1,2,2,3953,2,"arithmetic"
"Arithmetic_Run2",6,1,"05-23-2015",14:23:24,2,1,"Plus1",4,10,"Plus1","I",2,2,9,1,12,1,2,2,4434,2,"arithmetic"
"Arithmetic_Run2",6,1,"05-23-2015",14:23:24,2,1,"Plus1",5,3,"Plus1","C",1,0,2,1,3,1,1,1,2876,2,"arithmetic"
"Arithmetic_Run2",6,1,"05-23-2015",14:23:24,2,1,"Plus1",6,5,"Plus1","I",2,2,4,1,7,0,2,1,5423,2,"arithmetic"
"Arithmetic_Run2",6,1,"05-23-2015",14:23:24,3,2,"SmallProblem",1,10,"S","I",2,1,4,6,11,1,2,2,3096,2,"arithmetic"
"Arithmetic_Run2",6,1,"05-23-2015",14:23:24,3,2,"SmallProblem",2,8,"S","I",2,2,3,5,10,1,2,2,5494,2,"arithmetic"
"Arithmetic_Run2",6,1,"05-23-2015",14:23:24,3,2,"SmallProblem",3,9,"S","I",2,1,7,2,10,1,2,2,3442,2,"arithmetic"
"Arithmetic_Run2",6,1,"05-23-2015",14:23:24,3,2,"SmallProblem",4,6,"S","C",1,0,2,4,6,1,1,1,4552,2,"arithmetic"
"Arithmetic_Run2",6,1,"05-23-2015",14:23:24,3,2,"SmallProblem",5,8,"S","I",2,1,2,6,9,1,2,2,4128,2,"arithmetic"
"Arithmetic_Run2",6,1,"05-23-2015",14:23:24,3,2,"SmallProblem",6,10,"S","C",1,0,3,7,10,1,1,1,3727,2,"arithmetic"
"Arithmetic_Run2",6,1,"05-23-2015",14:23:24,4,5,"Plus1",1,6,"Plus1","I",2,1,5,1,7,0,NA,NA,0,2,"arithmetic"
"Arithmetic_Run2",6,1,"05-23-2015",14:23:24,4,5,"Plus1",2,10,"Plus1","C",1,0,9,1,10,0,1,2,704,2,"arithmetic"
"Arithmetic_Run2",6,1,"05-23-2015",14:23:24,4,5,"Plus1",3,8,"Plus1","C",1,0,7,1,8,0,NA,NA,0,2,"arithmetic"
"Arithmetic_Run2",6,1,"05-23-2015",14:23:24,4,5,"Plus1",4,7,"Plus1","C",1,0,6,1,7,1,1,1,268,2,"arithmetic"
"Arithmetic_Run2",6,1,"05-23-2015",14:23:24,4,5,"Plus1",5,6,"Plus1","C",1,0,5,1,6,0,1,2,481,2,"arithmetic"
"Arithmetic_Run2",6,1,"05-23-2015",14:23:24,4,5,"Plus1",6,3,"Plus1","I",2,1,2,1,4,0,NA,NA,0,2,"arithmetic"
"Arithmetic_Run2",6,1,"05-23-2015",14:23:24,5,3,"LargeProblem",1,11,"L","I",2,2,9,2,13,1,2,2,2817,2,"arithmetic"
"Arithmetic_Run2",6,1,"05-23-2015",14:23:24,5,3,"LargeProblem",2,12,"L","I",2,1,8,4,13,0,2,1,5283,2,"arithmetic"
"Arithmetic_Run2",6,1,"05-23-2015",14:23:24,5,3,"LargeProblem",3,11,"L","I",2,1,4,7,12,0,NA,NA,0,2,"arithmetic"
"Arithmetic_Run2",6,1,"05-23-2015",14:23:24,5,3,"LargeProblem",4,12,"L","I",2,2,5,7,14,0,2,1,1774,2,"arithmetic"
"Arithmetic_Run2",6,1,"05-23-2015",14:23:24,5,3,"LargeProblem",5,11,"L","C",1,0,3,8,11,1,1,1,2470,2,"arithmetic"
"Arithmetic_Run2",6,1,"05-23-2015",14:23:24,5,3,"LargeProblem",6,11,"L","C",1,0,6,5,11,1,1,1,4834,2,"arithmetic"
"Arithmetic_Run2",6,1,"05-23-2015",14:23:24,6,4,"LargeProblem",1,12,"L","C",1,0,9,3,12,1,1,1,4006,2,"arithmetic"
"Arithmetic_Run2",6,1,"05-23-2015",14:23:24,6,4,"LargeProblem",2,13,"L","C",1,0,4,9,13,1,1,1,4039,2,"arithmetic"
"Arithmetic_Run2",6,1,"05-23-2015",14:23:24,6,4,"LargeProblem",3,14,"L","C",1,0,5,9,14,1,1,1,2592,2,"arithmetic"
"Arithmetic_Run2",6,1,"05-23-2015",14:23:24,6,4,"LargeProblem",4,13,"L","C",1,0,7,6,13,1,1,1,4714,2,"arithmetic"
"Arithmetic_Run2",6,1,"05-23-2015",14:23:24,6,4,"LargeProblem",5,14,"L","I",2,1,6,8,15,0,2,1,4588,2,"arithmetic"
"Arithmetic_Run2",6,1,"05-23-2015",14:23:24,6,4,"LargeProblem",6,13,"L","I",2,2,8,5,15,0,NA,NA,0,2,"arithmetic"
"Arithmetic_Run1",7,1,"06-28-2015",11:05:36,1,2,"SmallProblem",1,9,"S","I",2,1,4,5,10,0,2,1,4897,1,"arithmetic"
"Arithmetic_Run1",7,1,"06-28-2015",11:05:36,1,2,"SmallProblem",2,9,"S","C",1,0,3,6,9,1,1,1,2455,1,"arithmetic"
"Arithmetic_Run1",7,1,"06-28-2015",11:05:36,1,2,"SmallProblem",3,7,"S","I",2,1,2,5,8,1,2,2,4425,1,"arithmetic"
"Arithmetic_Run1",7,1,"06-28-2015",11:05:36,1,2,"SmallProblem",4,10,"S","I",2,2,7,3,12,1,2,2,4077,1,"arithmetic"
"Arithmetic_Run1",7,1,"06-28-2015",11:05:36,1,2,"SmallProblem",5,6,"S","I",2,2,4,2,8,0,NA,NA,0,1,"arithmetic"
"Arithmetic_Run1",7,1,"06-28-2015",11:05:36,1,2,"SmallProblem",6,5,"S","C",1,0,2,3,5,0,1,2,1175,1,"arithmetic"
"Arithmetic_Run1",7,1,"06-28-2015",11:05:36,2,6,"SmallProblem",1,10,"S","I",2,1,8,2,11,0,NA,NA,0,1,"arithmetic"
"Arithmetic_Run1",7,1,"06-28-2015",11:05:36,2,6,"SmallProblem",2,9,"S","C",1,0,2,7,9,0,1,2,2428,1,"arithmetic"
"Arithmetic_Run1",7,1,"06-28-2015",11:05:36,2,6,"SmallProblem",3,8,"S","C",1,0,5,3,8,1,1,1,289,1,"arithmetic"
"Arithmetic_Run1",7,1,"06-28-2015",11:05:36,2,6,"SmallProblem",4,8,"S","C",1,0,6,2,8,0,1,2,4306,1,"arithmetic"
"Arithmetic_Run1",7,1,"06-28-2015",11:05:36,2,6,"SmallProblem",5,7,"S","I",2,2,3,4,9,0,NA,NA,0,1,"arithmetic"
"Arithmetic_Run1",7,1,"06-28-2015",11:05:36,2,6,"SmallProblem",6,10,"S","C",1,0,6,4,10,1,1,1,2450,1,"arithmetic"
"Arithmetic_Run1",7,1,"06-28-2015",11:05:36,3,5,"Plus1",1,6,"Plus1","I",2,2,5,1,8,1,2,2,2543,1,"arithmetic"
"Arithmetic_Run1",7,1,"06-28-2015",11:05:36,3,5,"Plus1",2,8,"Plus1","C",1,0,7,1,8,0,NA,NA,0,1,"arithmetic"
"Arithmetic_Run1",7,1,"06-28-2015",11:05:36,3,5,"Plus1",3,9,"Plus1","I",2,2,8,1,11,1,2,2,1328,1,"arithmetic"
"Arithmetic_Run1",7,1,"06-28-2015",11:05:36,3,5,"Plus1",4,5,"Plus1","I",2,1,4,1,6,0,NA,NA,0,1,"arithmetic"
"Arithmetic_Run1",7,1,"06-28-2015",11:05:36,3,5,"Plus1",5,4,"Plus1","I",2,1,3,1,5,0,NA,NA,0,1,"arithmetic"
"Arithmetic_Run1",7,1,"06-28-2015",11:05:36,3,5,"Plus1",6,9,"Plus1","C",1,0,8,1,9,1,1,1,4721,1,"arithmetic"
"Arithmetic_Run1",7,1,"06-28-2015",11:05:36,4,4,"LargeProblem",1,14,"L","I",2,2,9,5,16,0,NA,NA,0,1,"arithmetic"
"Arithmetic_Run1",7,1,"06-28-2015",11:05:36,4,4,"LargeProblem",2,12,"L","C",1,0,4,8,12,1,1,1,1437,1,"arithmetic"
"Arithmetic_Run1",7,1,"06-28-2015",11:05:36,4,4,"LargeProblem",3,13,"L","C",1,0,5,8,13,1,1,1,994,1,"arithmetic"
"Arithmetic_Run1",7,1,"06-28-2015",11:05:36,4,4,"LargeProblem",4,12,"L","C",1,0,7,5,12,1,1,1,1471,1,"arithmetic"
"Arithmetic_Run1",7,1,"06-28-2015",11:05:36,4,4,"LargeProblem",5,11,"L","I",2,2,8,3,13,0,NA,NA,0,1,"arithmetic"
"Arithmetic_Run1",7,1,"06-28-2015",11:05:36,4,4,"LargeProblem",6,13,"L","I",2,1,9,4,14,0,NA,NA,0,1,"arithmetic"
"Arithmetic_Run1",7,1,"06-28-2015",11:05:36,5,3,"LargeProblem",1,12,"L","I",2,1,3,9,13,0,NA,NA,0,1,"arithmetic"
"Arithmetic_Run1",7,1,"06-28-2015",11:05:36,5,3,"LargeProblem",2,11,"L","C",1,0,7,4,11,0,1,2,5486,1,"arithmetic"
"Arithmetic_Run1",7,1,"06-28-2015",11:05:36,5,3,"LargeProblem",3,11,"L","C",1,0,2,9,11,1,1,1,442,1,"arithmetic"
"Arithmetic_Run1",7,1,"06-28-2015",11:05:36,5,3,"LargeProblem",4,13,"L","I",2,1,6,7,14,0,NA,NA,0,1,"arithmetic"
"Arithmetic_Run1",7,1,"06-28-2015",11:05:36,5,3,"LargeProblem",5,11,"L","I",2,2,5,6,13,0,NA,NA,0,1,"arithmetic"
"Arithmetic_Run1",7,1,"06-28-2015",11:05:36,5,3,"LargeProblem",6,14,"L","C",1,0,8,6,14,1,1,1,575,1,"arithmetic"
"Arithmetic_Run1",7,1,"06-28-2015",11:05:36,6,1,"Plus1",1,5,"Plus1","C",1,0,4,1,5,1,1,1,2846,1,"arithmetic"
"Arithmetic_Run1",7,1,"06-28-2015",11:05:36,6,1,"Plus1",2,3,"Plus1","C",1,0,2,1,3,1,1,1,5162,1,"arithmetic"
"Arithmetic_Run1",7,1,"06-28-2015",11:05:36,6,1,"Plus1",3,8,"Plus1","I",2,1,7,1,9,0,2,1,4660,1,"arithmetic"
"Arithmetic_Run1",7,1,"06-28-2015",11:05:36,6,1,"Plus1",4,4,"Plus1","C",1,0,3,1,4,1,1,1,3168,1,"arithmetic"
"Arithmetic_Run1",7,1,"06-28-2015",11:05:36,6,1,"Plus1",5,7,"Plus1","C",1,0,6,1,7,1,1,1,3353,1,"arithmetic"
"Arithmetic_Run1",7,1,"06-28-2015",11:05:36,6,1,"Plus1",6,10,"Plus1","I",2,2,9,1,12,0,2,1,4486,1,"arithmetic"
"Arithmetic_Run2",7,1,"06-28-2015",11:11:02,1,4,"LargeProblem",1,12,"L","I",2,1,8,4,13,1,2,2,6450,2,"arithmetic"
"Arithmetic_Run2",7,1,"06-28-2015",11:11:02,1,4,"LargeProblem",2,12,"L","I",2,2,5,7,14,1,2,2,4693,2,"arithmetic"
"Arithmetic_Run2",7,1,"06-28-2015",11:11:02,1,4,"LargeProblem",3,11,"L","I",2,1,4,7,12,0,NA,NA,0,2,"arithmetic"
"Arithmetic_Run2",7,1,"06-28-2015",11:11:02,1,4,"LargeProblem",4,12,"L","C",1,0,9,3,12,0,1,2,584,2,"arithmetic"
"Arithmetic_Run2",7,1,"06-28-2015",11:11:02,1,4,"LargeProblem",5,11,"L","C",1,0,3,8,11,1,1,1,4646,2,"arithmetic"
"Arithmetic_Run2",7,1,"06-28-2015",11:11:02,1,4,"LargeProblem",6,14,"L","C",1,0,5,9,14,1,1,1,5588,2,"arithmetic"
"Arithmetic_Run2",7,1,"06-28-2015",11:11:02,2,1,"Plus1",1,6,"Plus1","C",1,0,5,1,6,1,1,1,3430,2,"arithmetic"
"Arithmetic_Run2",7,1,"06-28-2015",11:11:02,2,1,"Plus1",2,5,"Plus1","I",2,2,4,1,7,1,2,2,4870,2,"arithmetic"
"Arithmetic_Run2",7,1,"06-28-2015",11:11:02,2,1,"Plus1",3,10,"Plus1","I",2,2,9,1,12,0,NA,NA,0,2,"arithmetic"
"Arithmetic_Run2",7,1,"06-28-2015",11:11:02,2,1,"Plus1",4,3,"Plus1","C",1,0,2,1,3,0,1,2,227,2,"arithmetic"
"Arithmetic_Run2",7,1,"06-28-2015",11:11:02,2,1,"Plus1",5,9,"Plus1","I",2,2,8,1,11,1,2,2,5821,2,"arithmetic"
"Arithmetic_Run2",7,1,"06-28-2015",11:11:02,2,1,"Plus1",6,7,"Plus1","C",1,0,6,1,7,1,1,1,2952,2,"arithmetic"
"Arithmetic_Run2",7,1,"06-28-2015",11:11:02,3,5,"Plus1",1,10,"Plus1","C",1,0,9,1,10,0,NA,NA,0,2,"arithmetic"
"Arithmetic_Run2",7,1,"06-28-2015",11:11:02,3,5,"Plus1",2,6,"Plus1","I",2,1,5,1,7,0,NA,NA,0,2,"arithmetic"
"Arithmetic_Run2",7,1,"06-28-2015",11:11:02,3,5,"Plus1",3,4,"Plus1","C",1,0,3,1,4,0,1,2,880,2,"arithmetic"
"Arithmetic_Run2",7,1,"06-28-2015",11:11:02,3,5,"Plus1",4,3,"Plus1","I",2,1,2,1,4,0,NA,NA,0,2,"arithmetic"
"Arithmetic_Run2",7,1,"06-28-2015",11:11:02,3,5,"Plus1",5,7,"Plus1","I",2,1,6,1,8,1,2,2,5816,2,"arithmetic"
"Arithmetic_Run2",7,1,"06-28-2015",11:11:02,3,5,"Plus1",6,8,"Plus1","C",1,0,7,1,8,0,NA,NA,0,2,"arithmetic"
"Arithmetic_Run2",7,1,"06-28-2015",11:11:02,4,2,"SmallProblem",1,6,"S","C",1,0,2,4,6,0,NA,NA,0,2,"arithmetic"
"Arithmetic_Run2",7,1,"06-28-2015",11:11:02,4,2,"SmallProblem",2,10,"S","C",1,0,2,8,10,1,1,1,646,2,"arithmetic"
"Arithmetic_Run2",7,1,"06-28-2015",11:11:02,4,2,"SmallProblem",3,5,"S","I",2,2,3,2,7,1,2,2,3584,2,"arithmetic"
"Arithmetic_Run2",7,1,"06-28-2015",11:11:02,4,2,"SmallProblem",4,10,"S","I",2,1,4,6,11,1,2,2,1799,2,"arithmetic"
"Arithmetic_Run2",7,1,"06-28-2015",11:11:02,4,2,"SmallProblem",5,7,"S","C",1,0,4,3,7,0,NA,NA,0,2,"arithmetic"
"Arithmetic_Run2",7,1,"06-28-2015",11:11:02,4,2,"SmallProblem",6,10,"S","C",1,0,3,7,10,0,1,2,2695,2,"arithmetic"
"Arithmetic_Run2",7,1,"06-28-2015",11:11:02,5,6,"SmallProblem",1,9,"S","I",2,1,7,2,10,0,2,1,4745,2,"arithmetic"
"Arithmetic_Run2",7,1,"06-28-2015",11:11:02,5,6,"SmallProblem",2,8,"S","I",2,2,3,5,10,0,NA,NA,0,2,"arithmetic"
"Arithmetic_Run2",7,1,"06-28-2015",11:11:02,5,6,"SmallProblem",3,7,"S","C",1,0,5,2,7,1,1,1,2987,2,"arithmetic"
"Arithmetic_Run2",7,1,"06-28-2015",11:11:02,5,6,"SmallProblem",4,9,"S","I",2,2,6,3,11,0,NA,NA,0,2,"arithmetic"
"Arithmetic_Run2",7,1,"06-28-2015",11:11:02,5,6,"SmallProblem",5,9,"S","C",1,0,5,4,9,1,1,1,92,2,"arithmetic"
"Arithmetic_Run2",7,1,"06-28-2015",11:11:02,5,6,"SmallProblem",6,8,"S","I",2,1,2,6,9,0,NA,NA,0,2,"arithmetic"
"Arithmetic_Run2",7,1,"06-28-2015",11:11:02,6,3,"LargeProblem",1,14,"L","I",2,1,6,8,15,0,NA,NA,0,2,"arithmetic"
"Arithmetic_Run2",7,1,"06-28-2015",11:11:02,6,3,"LargeProblem",2,13,"L","I",2,2,8,5,15,0,2,1,5740,2,"arithmetic"
"Arithmetic_Run2",7,1,"06-28-2015",11:11:02,6,3,"LargeProblem",3,13,"L","C",1,0,7,6,13,0,1,2,230,2,"arithmetic"
"Arithmetic_Run2",7,1,"06-28-2015",11:11:02,6,3,"LargeProblem",4,13,"L","C",1,0,4,9,13,0,1,2,1868,2,"arithmetic"
"Arithmetic_Run2",7,1,"06-28-2015",11:11:02,6,3,"LargeProblem",5,11,"L","I",2,2,9,2,13,1,2,2,1124,2,"arithmetic"
"Arithmetic_Run2",7,1,"06-28-2015",11:11:02,6,3,"LargeProblem",6,11,"L","C",1,0,6,5,11,0,NA,NA,0,2,"arithmetic"
"Arithmetic_Run1",8,1,"05-30-2015",12:26:09,1,3,"LargeProblem",1,12,"L","C",1,0,4,8,12,1,1,1,2289,1,"arithmetic"
"Arithmetic_Run1",8,1,"05-30-2015",12:26:09,1,3,"LargeProblem",2,13,"L","I",2,1,6,7,14,1,2,2,3797,1,"arithmetic"
"Arithmetic_Run1",8,1,"05-30-2015",12:26:09,1,3,"LargeProblem",3,13,"L","I",2,1,9,4,14,1,2,2,4506,1,"arithmetic"
"Arithmetic_Run1",8,1,"05-30-2015",12:26:09,1,3,"LargeProblem",4,12,"L","I",2,1,3,9,13,1,2,2,3478,1,"arithmetic"
"Arithmetic_Run1",8,1,"05-30-2015",12:26:09,1,3,"LargeProblem",5,14,"L","I",2,2,9,5,16,1,2,2,4747,1,"arithmetic"
"Arithmetic_Run1",8,1,"05-30-2015",12:26:09,1,3,"LargeProblem",6,12,"L","C",1,0,7,5,12,0,1,2,3159,1,"arithmetic"
"Arithmetic_Run1",8,1,"05-30-2015",12:26:09,2,1,"Plus1",1,9,"Plus1","I",2,2,8,1,11,1,2,2,4163,1,"arithmetic"
"Arithmetic_Run1",8,1,"05-30-2015",12:26:09,2,1,"Plus1",2,8,"Plus1","C",1,0,7,1,8,1,1,1,4146,1,"arithmetic"
"Arithmetic_Run1",8,1,"05-30-2015",12:26:09,2,1,"Plus1",3,8,"Plus1","I",2,1,7,1,9,1,2,2,2954,1,"arithmetic"
"Arithmetic_Run1",8,1,"05-30-2015",12:26:09,2,1,"Plus1",4,9,"Plus1","C",1,0,8,1,9,1,1,1,3849,1,"arithmetic"
"Arithmetic_Run1",8,1,"05-30-2015",12:26:09,2,1,"Plus1",5,4,"Plus1","I",2,1,3,1,5,1,2,2,3517,1,"arithmetic"
"Arithmetic_Run1",8,1,"05-30-2015",12:26:09,2,1,"Plus1",6,10,"Plus1","I",2,2,9,1,12,1,2,2,4986,1,"arithmetic"
"Arithmetic_Run1",8,1,"05-30-2015",12:26:09,3,4,"LargeProblem",1,11,"L","I",2,2,8,3,13,0,2,1,3541,1,"arithmetic"
"Arithmetic_Run1",8,1,"05-30-2015",12:26:09,3,4,"LargeProblem",2,11,"L","C",1,0,2,9,11,1,1,1,5223,1,"arithmetic"
"Arithmetic_Run1",8,1,"05-30-2015",12:26:09,3,4,"LargeProblem",3,11,"L","I",2,2,5,6,13,1,2,2,5384,1,"arithmetic"
"Arithmetic_Run1",8,1,"05-30-2015",12:26:09,3,4,"LargeProblem",4,14,"L","C",1,0,8,6,14,0,NA,NA,0,1,"arithmetic"
"Arithmetic_Run1",8,1,"05-30-2015",12:26:09,3,4,"LargeProblem",5,13,"L","C",1,0,5,8,13,1,1,1,4,1,"arithmetic"
"Arithmetic_Run1",8,1,"05-30-2015",12:26:09,3,4,"LargeProblem",6,11,"L","C",1,0,7,4,11,1,1,1,6176,1,"arithmetic"
"Arithmetic_Run1",8,1,"05-30-2015",12:26:09,4,5,"Plus1",1,6,"Plus1","I",2,2,5,1,8,0,NA,NA,0,1,"arithmetic"
"Arithmetic_Run1",8,1,"05-30-2015",12:26:09,4,5,"Plus1",2,4,"Plus1","C",1,0,3,1,4,1,1,1,4172,1,"arithmetic"
"Arithmetic_Run1",8,1,"05-30-2015",12:26:09,4,5,"Plus1",3,5,"Plus1","I",2,1,4,1,6,1,2,2,3602,1,"arithmetic"
"Arithmetic_Run1",8,1,"05-30-2015",12:26:09,4,5,"Plus1",4,5,"Plus1","C",1,0,4,1,5,1,1,1,2480,1,"arithmetic"
"Arithmetic_Run1",8,1,"05-30-2015",12:26:09,4,5,"Plus1",5,3,"Plus1","C",1,0,2,1,3,1,1,1,3527,1,"arithmetic"
"Arithmetic_Run1",8,1,"05-30-2015",12:26:09,4,5,"Plus1",6,7,"Plus1","C",1,0,6,1,7,1,1,1,2698,1,"arithmetic"
"Arithmetic_Run1",8,1,"05-30-2015",12:26:09,5,2,"SmallProblem",1,6,"S","I",2,2,4,2,8,1,2,2,5245,1,"arithmetic"
"Arithmetic_Run1",8,1,"05-30-2015",12:26:09,5,2,"SmallProblem",2,5,"S","C",1,0,2,3,5,1,1,1,2451,1,"arithmetic"
"Arithmetic_Run1",8,1,"05-30-2015",12:26:09,5,2,"SmallProblem",3,9,"S","I",2,1,4,5,10,1,2,2,2179,1,"arithmetic"
"Arithmetic_Run1",8,1,"05-30-2015",12:26:09,5,2,"SmallProblem",4,7,"S","I",2,1,2,5,8,1,2,2,5485,1,"arithmetic"
"Arithmetic_Run1",8,1,"05-30-2015",12:26:09,5,2,"SmallProblem",5,10,"S","I",2,2,7,3,12,1,2,2,4951,1,"arithmetic"
"Arithmetic_Run1",8,1,"05-30-2015",12:26:09,5,2,"SmallProblem",6,10,"S","I",2,1,8,2,11,1,2,2,1566,1,"arithmetic"
"Arithmetic_Run1",8,1,"05-30-2015",12:26:09,6,6,"SmallProblem",1,9,"S","C",1,0,2,7,9,0,NA,NA,0,1,"arithmetic"
"Arithmetic_Run1",8,1,"05-30-2015",12:26:09,6,6,"SmallProblem",2,7,"S","I",2,2,3,4,9,1,2,2,4258,1,"arithmetic"
"Arithmetic_Run1",8,1,"05-30-2015",12:26:09,6,6,"SmallProblem",3,8,"S","C",1,0,5,3,8,1,1,1,4153,1,"arithmetic"
"Arithmetic_Run1",8,1,"05-30-2015",12:26:09,6,6,"SmallProblem",4,10,"S","C",1,0,6,4,10,1,1,1,1597,1,"arithmetic"
"Arithmetic_Run1",8,1,"05-30-2015",12:26:09,6,6,"SmallProblem",5,8,"S","C",1,0,6,2,8,1,1,1,3361,1,"arithmetic"
"Arithmetic_Run1",8,1,"05-30-2015",12:26:09,6,6,"SmallProblem",6,9,"S","C",1,0,3,6,9,1,1,1,1596,1,"arithmetic"
"Arithmetic_Run2",8,1,"05-30-2015",12:31:26,1,5,"Plus1",1,4,"Plus1","C",1,0,3,1,4,1,1,1,1819,2,"arithmetic"
"Arithmetic_Run2",8,1,"05-30-2015",12:31:26,1,5,"Plus1",2,7,"Plus1","I",2,1,6,1,8,1,2,2,2618,2,"arithmetic"
"Arithmetic_Run2",8,1,"05-30-2015",12:31:26,1,5,"Plus1",3,6,"Plus1","C",1,0,5,1,6,1,1,1,2513,2,"arithmetic"
"Arithmetic_Run2",8,1,"05-30-2015",12:31:26,1,5,"Plus1",4,10,"Plus1","I",2,2,9,1,12,1,2,2,3641,2,"arithmetic"
"Arithmetic_Run2",8,1,"05-30-2015",12:31:26,1,5,"Plus1",5,5,"Plus1","I",2,2,4,1,7,1,2,2,4114,2,"arithmetic"
"Arithmetic_Run2",8,1,"05-30-2015",12:31:26,1,5,"Plus1",6,6,"Plus1","I",2,1,5,1,7,1,2,2,3676,2,"arithmetic"
"Arithmetic_Run2",8,1,"05-30-2015",12:31:26,2,1,"Plus1",1,8,"Plus1","C",1,0,7,1,8,1,1,1,3884,2,"arithmetic"
"Arithmetic_Run2",8,1,"05-30-2015",12:31:26,2,1,"Plus1",2,10,"Plus1","C",1,0,9,1,10,1,1,1,2565,2,"arithmetic"
"Arithmetic_Run2",8,1,"05-30-2015",12:31:26,2,1,"Plus1",3,9,"Plus1","I",2,2,8,1,11,1,2,2,2429,2,"arithmetic"
"Arithmetic_Run2",8,1,"05-30-2015",12:31:26,2,1,"Plus1",4,3,"Plus1","I",2,1,2,1,4,1,2,2,5022,2,"arithmetic"
"Arithmetic_Run2",8,1,"05-30-2015",12:31:26,2,1,"Plus1",5,3,"Plus1","C",1,0,2,1,3,1,1,1,1361,2,"arithmetic"
"Arithmetic_Run2",8,1,"05-30-2015",12:31:26,2,1,"Plus1",6,7,"Plus1","C",1,0,6,1,7,1,1,1,1746,2,"arithmetic"
"Arithmetic_Run2",8,1,"05-30-2015",12:31:26,3,3,"LargeProblem",1,13,"L","C",1,0,7,6,13,0,1,2,3351,2,"arithmetic"
"Arithmetic_Run2",8,1,"05-30-2015",12:31:26,3,3,"LargeProblem",2,11,"L","C",1,0,6,5,11,0,1,2,4268,2,"arithmetic"
"Arithmetic_Run2",8,1,"05-30-2015",12:31:26,3,3,"LargeProblem",3,12,"L","I",2,1,8,4,13,1,2,2,4641,2,"arithmetic"
"Arithmetic_Run2",8,1,"05-30-2015",12:31:26,3,3,"LargeProblem",4,11,"L","I",2,2,9,2,13,1,2,2,1869,2,"arithmetic"
"Arithmetic_Run2",8,1,"05-30-2015",12:31:26,3,3,"LargeProblem",5,11,"L","I",2,1,4,7,12,1,2,2,5982,2,"arithmetic"
"Arithmetic_Run2",8,1,"05-30-2015",12:31:26,3,3,"LargeProblem",6,12,"L","I",2,2,5,7,14,1,2,2,2858,2,"arithmetic"
"Arithmetic_Run2",8,1,"05-30-2015",12:31:26,4,4,"LargeProblem",1,13,"L","I",2,2,8,5,15,1,2,2,2963,2,"arithmetic"
"Arithmetic_Run2",8,1,"05-30-2015",12:31:26,4,4,"LargeProblem",2,14,"L","I",2,1,6,8,15,0,2,1,3159,2,"arithmetic"
"Arithmetic_Run2",8,1,"05-30-2015",12:31:26,4,4,"LargeProblem",3,13,"L","C",1,0,4,9,13,0,1,2,5689,2,"arithmetic"
"Arithmetic_Run2",8,1,"05-30-2015",12:31:26,4,4,"LargeProblem",4,11,"L","C",1,0,3,8,11,0,1,2,4780,2,"arithmetic"
"Arithmetic_Run2",8,1,"05-30-2015",12:31:26,4,4,"LargeProblem",5,12,"L","C",1,0,9,3,12,0,1,2,4416,2,"arithmetic"
"Arithmetic_Run2",8,1,"05-30-2015",12:31:26,4,4,"LargeProblem",6,14,"L","C",1,0,5,9,14,1,1,1,4176,2,"arithmetic"
"Arithmetic_Run2",8,1,"05-30-2015",12:31:26,5,6,"SmallProblem",1,7,"S","C",1,0,5,2,7,1,1,1,2577,2,"arithmetic"
"Arithmetic_Run2",8,1,"05-30-2015",12:31:26,5,6,"SmallProblem",2,10,"S","C",1,0,3,7,10,0,1,2,4900,2,"arithmetic"
"Arithmetic_Run2",8,1,"05-30-2015",12:31:26,5,6,"SmallProblem",3,9,"S","C",1,0,5,4,9,1,1,1,2277,2,"arithmetic"
"Arithmetic_Run2",8,1,"05-30-2015",12:31:26,5,6,"SmallProblem",4,8,"S","I",2,1,2,6,9,0,2,1,4087,2,"arithmetic"
"Arithmetic_Run2",8,1,"05-30-2015",12:31:26,5,6,"SmallProblem",5,9,"S","I",2,1,7,2,10,1,2,2,3429,2,"arithmetic"
"Arithmetic_Run2",8,1,"05-30-2015",12:31:26,5,6,"SmallProblem",6,10,"S","I",2,1,4,6,11,1,2,2,4139,2,"arithmetic"
"Arithmetic_Run2",8,1,"05-30-2015",12:31:26,6,2,"SmallProblem",1,5,"S","I",2,2,3,2,7,1,2,2,2704,2,"arithmetic"
"Arithmetic_Run2",8,1,"05-30-2015",12:31:26,6,2,"SmallProblem",2,8,"S","I",2,2,3,5,10,0,NA,NA,0,2,"arithmetic"
"Arithmetic_Run2",8,1,"05-30-2015",12:31:26,6,2,"SmallProblem",3,7,"S","C",1,0,4,3,7,0,1,2,312,2,"arithmetic"
"Arithmetic_Run2",8,1,"05-30-2015",12:31:26,6,2,"SmallProblem",4,6,"S","C",1,0,2,4,6,1,1,1,2667,2,"arithmetic"
"Arithmetic_Run2",8,1,"05-30-2015",12:31:26,6,2,"SmallProblem",5,9,"S","I",2,2,6,3,11,0,2,1,2357,2,"arithmetic"
"Arithmetic_Run2",8,1,"05-30-2015",12:31:26,6,2,"SmallProblem",6,10,"S","C",1,0,2,8,10,1,1,1,1842,2,"arithmetic"
"Arithmetic_Run1",9,1,"06-29-2015",16:47:30,1,5,"Plus1",1,8,"Plus1","I",2,1,7,1,9,1,2,2,2169,1,"arithmetic"
"Arithmetic_Run1",9,1,"06-29-2015",16:47:30,1,5,"Plus1",2,6,"Plus1","I",2,2,5,1,8,1,2,2,1747,1,"arithmetic"
"Arithmetic_Run1",9,1,"06-29-2015",16:47:30,1,5,"Plus1",3,9,"Plus1","C",1,0,8,1,9,1,1,1,1696,1,"arithmetic"
"Arithmetic_Run1",9,1,"06-29-2015",16:47:30,1,5,"Plus1",4,5,"Plus1","C",1,0,4,1,5,1,1,1,2029,1,"arithmetic"
"Arithmetic_Run1",9,1,"06-29-2015",16:47:30,1,5,"Plus1",5,9,"Plus1","I",2,2,8,1,11,1,2,2,4073,1,"arithmetic"
"Arithmetic_Run1",9,1,"06-29-2015",16:47:30,1,5,"Plus1",6,4,"Plus1","C",1,0,3,1,4,1,1,1,2147,1,"arithmetic"
"Arithmetic_Run1",9,1,"06-29-2015",16:47:30,2,4,"LargeProblem",1,11,"L","I",2,2,5,6,13,1,2,2,3110,1,"arithmetic"
"Arithmetic_Run1",9,1,"06-29-2015",16:47:30,2,4,"LargeProblem",2,12,"L","C",1,0,7,5,12,1,1,1,3625,1,"arithmetic"
"Arithmetic_Run1",9,1,"06-29-2015",16:47:30,2,4,"LargeProblem",3,14,"L","C",1,0,8,6,14,0,1,2,1833,1,"arithmetic"
"Arithmetic_Run1",9,1,"06-29-2015",16:47:30,2,4,"LargeProblem",4,12,"L","I",2,1,3,9,13,0,2,1,841,1,"arithmetic"
"Arithmetic_Run1",9,1,"06-29-2015",16:47:30,2,4,"LargeProblem",5,12,"L","C",1,0,4,8,12,0,1,2,4028,1,"arithmetic"
"Arithmetic_Run1",9,1,"06-29-2015",16:47:30,2,4,"LargeProblem",6,11,"L","C",1,0,7,4,11,1,1,1,4577,1,"arithmetic"
"Arithmetic_Run1",9,1,"06-29-2015",16:47:30,3,1,"Plus1",1,8,"Plus1","C",1,0,7,1,8,0,NA,NA,0,1,"arithmetic"
"Arithmetic_Run1",9,1,"06-29-2015",16:47:30,3,1,"Plus1",2,4,"Plus1","I",2,1,3,1,5,0,2,1,108,1,"arithmetic"
"Arithmetic_Run1",9,1,"06-29-2015",16:47:30,3,1,"Plus1",3,10,"Plus1","I",2,2,9,1,12,1,2,2,2296,1,"arithmetic"
"Arithmetic_Run1",9,1,"06-29-2015",16:47:30,3,1,"Plus1",4,5,"Plus1","I",2,1,4,1,6,0,2,1,3187,1,"arithmetic"
"Arithmetic_Run1",9,1,"06-29-2015",16:47:30,3,1,"Plus1",5,7,"Plus1","C",1,0,6,1,7,1,1,1,2142,1,"arithmetic"
"Arithmetic_Run1",9,1,"06-29-2015",16:47:30,3,1,"Plus1",6,3,"Plus1","C",1,0,2,1,3,1,1,1,2689,1,"arithmetic"
"Arithmetic_Run1",9,1,"06-29-2015",16:47:30,4,3,"LargeProblem",1,14,"L","I",2,2,9,5,16,1,2,2,2202,1,"arithmetic"
"Arithmetic_Run1",9,1,"06-29-2015",16:47:30,4,3,"LargeProblem",2,13,"L","I",2,1,6,7,14,1,2,2,3425,1,"arithmetic"
"Arithmetic_Run1",9,1,"06-29-2015",16:47:30,4,3,"LargeProblem",3,11,"L","I",2,2,8,3,13,0,NA,NA,0,1,"arithmetic"
"Arithmetic_Run1",9,1,"06-29-2015",16:47:30,4,3,"LargeProblem",4,13,"L","I",2,1,9,4,14,1,2,2,1113,1,"arithmetic"
"Arithmetic_Run1",9,1,"06-29-2015",16:47:30,4,3,"LargeProblem",5,13,"L","C",1,0,5,8,13,0,NA,NA,0,1,"arithmetic"
"Arithmetic_Run1",9,1,"06-29-2015",16:47:30,4,3,"LargeProblem",6,11,"L","C",1,0,2,9,11,0,NA,NA,0,1,"arithmetic"
"Arithmetic_Run1",9,1,"06-29-2015",16:47:30,5,6,"SmallProblem",1,9,"S","I",2,1,4,5,10,0,2,1,42,1,"arithmetic"
"Arithmetic_Run1",9,1,"06-29-2015",16:47:30,5,6,"SmallProblem",2,9,"S","C",1,0,3,6,9,0,1,2,3696,1,"arithmetic"
"Arithmetic_Run1",9,1,"06-29-2015",16:47:30,5,6,"SmallProblem",3,7,"S","I",2,1,2,5,8,1,2,2,5062,1,"arithmetic"
"Arithmetic_Run1",9,1,"06-29-2015",16:47:30,5,6,"SmallProblem",4,10,"S","C",1,0,6,4,10,0,1,2,3293,1,"arithmetic"
"Arithmetic_Run1",9,1,"06-29-2015",16:47:30,5,6,"SmallProblem",5,7,"S","I",2,2,3,4,9,0,NA,NA,0,1,"arithmetic"
"Arithmetic_Run1",9,1,"06-29-2015",16:47:30,5,6,"SmallProblem",6,6,"S","I",2,2,4,2,8,0,NA,NA,0,1,"arithmetic"
"Arithmetic_Run1",9,1,"06-29-2015",16:47:30,6,2,"SmallProblem",1,10,"S","I",2,1,8,2,11,1,2,2,2932,1,"arithmetic"
"Arithmetic_Run1",9,1,"06-29-2015",16:47:30,6,2,"SmallProblem",2,9,"S","C",1,0,2,7,9,0,1,2,3252,1,"arithmetic"
"Arithmetic_Run1",9,1,"06-29-2015",16:47:30,6,2,"SmallProblem",3,5,"S","C",1,0,2,3,5,1,1,1,2792,1,"arithmetic"
"Arithmetic_Run1",9,1,"06-29-2015",16:47:30,6,2,"SmallProblem",4,10,"S","I",2,2,7,3,12,1,2,2,3508,1,"arithmetic"
"Arithmetic_Run1",9,1,"06-29-2015",16:47:30,6,2,"SmallProblem",5,8,"S","C",1,0,6,2,8,0,1,2,2992,1,"arithmetic"
"Arithmetic_Run1",9,1,"06-29-2015",16:47:30,6,2,"SmallProblem",6,8,"S","C",1,0,5,3,8,1,1,1,570,1,"arithmetic"
"Arithmetic_Run2",9,2,"06-29-2015",17:01:14,1,6,"SmallProblem",1,9,"S","I",2,1,7,2,10,0,NA,NA,0,2,"arithmetic"
"Arithmetic_Run2",9,2,"06-29-2015",17:01:14,1,6,"SmallProblem",2,7,"S","C",1,0,5,2,7,0,1,2,3946,2,"arithmetic"
"Arithmetic_Run2",9,2,"06-29-2015",17:01:14,1,6,"SmallProblem",3,8,"S","I",2,1,2,6,9,1,2,2,4728,2,"arithmetic"
"Arithmetic_Run2",9,2,"06-29-2015",17:01:14,1,6,"SmallProblem",4,10,"S","C",1,0,3,7,10,1,1,1,2542,2,"arithmetic"
"Arithmetic_Run2",9,2,"06-29-2015",17:01:14,1,6,"SmallProblem",5,5,"S","I",2,2,3,2,7,1,2,2,688,2,"arithmetic"
"Arithmetic_Run2",9,2,"06-29-2015",17:01:14,1,6,"SmallProblem",6,8,"S","I",2,2,3,5,10,0,NA,NA,0,2,"arithmetic"
"Arithmetic_Run2",9,2,"06-29-2015",17:01:14,2,5,"Plus1",1,3,"Plus1","C",1,0,2,1,3,0,1,2,446,2,"arithmetic"
"Arithmetic_Run2",9,2,"06-29-2015",17:01:14,2,5,"Plus1",2,6,"Plus1","I",2,1,5,1,7,1,2,2,3439,2,"arithmetic"
"Arithmetic_Run2",9,2,"06-29-2015",17:01:14,2,5,"Plus1",3,7,"Plus1","I",2,1,6,1,8,0,2,1,863,2,"arithmetic"
"Arithmetic_Run2",9,2,"06-29-2015",17:01:14,2,5,"Plus1",4,4,"Plus1","C",1,0,3,1,4,0,1,2,3886,2,"arithmetic"
"Arithmetic_Run2",9,2,"06-29-2015",17:01:14,2,5,"Plus1",5,8,"Plus1","C",1,0,7,1,8,0,1,2,4925,2,"arithmetic"
"Arithmetic_Run2",9,2,"06-29-2015",17:01:14,2,5,"Plus1",6,7,"Plus1","C",1,0,6,1,7,1,1,1,2996,2,"arithmetic"
"Arithmetic_Run2",9,2,"06-29-2015",17:01:14,3,4,"LargeProblem",1,13,"L","C",1,0,7,6,13,0,1,2,1359,2,"arithmetic"
"Arithmetic_Run2",9,2,"06-29-2015",17:01:14,3,4,"LargeProblem",2,11,"L","I",2,1,4,7,12,0,2,1,3649,2,"arithmetic"
"Arithmetic_Run2",9,2,"06-29-2015",17:01:14,3,4,"LargeProblem",3,12,"L","I",2,2,5,7,14,1,2,2,5245,2,"arithmetic"
"Arithmetic_Run2",9,2,"06-29-2015",17:01:14,3,4,"LargeProblem",4,14,"L","C",1,0,5,9,14,0,1,2,1991,2,"arithmetic"
"Arithmetic_Run2",9,2,"06-29-2015",17:01:14,3,4,"LargeProblem",5,11,"L","I",2,2,9,2,13,0,2,1,2603,2,"arithmetic"
"Arithmetic_Run2",9,2,"06-29-2015",17:01:14,3,4,"LargeProblem",6,11,"L","C",1,0,6,5,11,0,1,2,2233,2,"arithmetic"
"Arithmetic_Run2",9,2,"06-29-2015",17:01:14,4,2,"SmallProblem",1,9,"S","I",2,2,6,3,11,1,2,2,1185,2,"arithmetic"
"Arithmetic_Run2",9,2,"06-29-2015",17:01:14,4,2,"SmallProblem",2,10,"S","C",1,0,2,8,10,1,1,1,1003,2,"arithmetic"
"Arithmetic_Run2",9,2,"06-29-2015",17:01:14,4,2,"SmallProblem",3,6,"S","C",1,0,2,4,6,1,1,1,2805,2,"arithmetic"
"Arithmetic_Run2",9,2,"06-29-2015",17:01:14,4,2,"SmallProblem",4,10,"S","I",2,1,4,6,11,1,2,2,3671,2,"arithmetic"
"Arithmetic_Run2",9,2,"06-29-2015",17:01:14,4,2,"SmallProblem",5,9,"S","C",1,0,5,4,9,1,1,1,474,2,"arithmetic"
"Arithmetic_Run2",9,2,"06-29-2015",17:01:14,4,2,"SmallProblem",6,7,"S","C",1,0,4,3,7,0,1,2,3908,2,"arithmetic"
"Arithmetic_Run2",9,2,"06-29-2015",17:01:14,5,1,"Plus1",1,9,"Plus1","I",2,2,8,1,11,1,2,2,4863,2,"arithmetic"
"Arithmetic_Run2",9,2,"06-29-2015",17:01:14,5,1,"Plus1",2,10,"Plus1","C",1,0,9,1,10,0,1,2,5394,2,"arithmetic"
"Arithmetic_Run2",9,2,"06-29-2015",17:01:14,5,1,"Plus1",3,5,"Plus1","I",2,2,4,1,7,0,2,1,1529,2,"arithmetic"
"Arithmetic_Run2",9,2,"06-29-2015",17:01:14,5,1,"Plus1",4,6,"Plus1","C",1,0,5,1,6,0,1,2,906,2,"arithmetic"
"Arithmetic_Run2",9,2,"06-29-2015",17:01:14,5,1,"Plus1",5,3,"Plus1","I",2,1,2,1,4,1,2,2,1775,2,"arithmetic"
"Arithmetic_Run2",9,2,"06-29-2015",17:01:14,5,1,"Plus1",6,10,"Plus1","I",2,2,9,1,12,0,2,1,1470,2,"arithmetic"
"Arithmetic_Run2",9,2,"06-29-2015",17:01:14,6,3,"LargeProblem",1,13,"L","I",2,2,8,5,15,1,2,2,2362,2,"arithmetic"
"Arithmetic_Run2",9,2,"06-29-2015",17:01:14,6,3,"LargeProblem",2,11,"L","C",1,0,3,8,11,0,1,2,721,2,"arithmetic"
"Arithmetic_Run2",9,2,"06-29-2015",17:01:14,6,3,"LargeProblem",3,12,"L","I",2,1,8,4,13,1,2,2,3405,2,"arithmetic"
"Arithmetic_Run2",9,2,"06-29-2015",17:01:14,6,3,"LargeProblem",4,13,"L","C",1,0,4,9,13,0,1,2,4245,2,"arithmetic"
"Arithmetic_Run2",9,2,"06-29-2015",17:01:14,6,3,"LargeProblem",5,12,"L","C",1,0,9,3,12,1,1,1,1004,2,"arithmetic"
"Arithmetic_Run2",9,2,"06-29-2015",17:01:14,6,3,"LargeProblem",6,14,"L","I",2,1,6,8,15,1,2,2,701,2,"arithmetic"
"Arithmetic_Run1",10,1,"06-24-2015",17:20:21,1,4,"LargeProblem",1,11,"L","C",1,0,2,9,11,1,1,1,1508,1,"arithmetic"
"Arithmetic_Run1",10,1,"06-24-2015",17:20:21,1,4,"LargeProblem",2,13,"L","I",2,1,6,7,14,0,2,1,1518,1,"arithmetic"
"Arithmetic_Run1",10,1,"06-24-2015",17:20:21,1,4,"LargeProblem",3,14,"L","C",1,0,8,6,14,1,1,1,1463,1,"arithmetic"
"Arithmetic_Run1",10,1,"06-24-2015",17:20:21,1,4,"LargeProblem",4,14,"L","I",2,2,9,5,16,0,2,1,1971,1,"arithmetic"
"Arithmetic_Run1",10,1,"06-24-2015",17:20:21,1,4,"LargeProblem",5,12,"L","C",1,0,7,5,12,1,1,1,972,1,"arithmetic"
"Arithmetic_Run1",10,1,"06-24-2015",17:20:21,1,4,"LargeProblem",6,11,"L","C",1,0,7,4,11,1,1,1,1473,1,"arithmetic"
"Arithmetic_Run1",10,1,"06-24-2015",17:20:21,2,6,"SmallProblem",1,10,"S","I",2,2,7,3,12,0,2,1,1273,1,"arithmetic"
"Arithmetic_Run1",10,1,"06-24-2015",17:20:21,2,6,"SmallProblem",2,7,"S","I",2,2,3,4,9,1,2,2,1872,1,"arithmetic"
"Arithmetic_Run1",10,1,"06-24-2015",17:20:21,2,6,"SmallProblem",3,5,"S","C",1,0,2,3,5,1,1,1,1313,1,"arithmetic"
"Arithmetic_Run1",10,1,"06-24-2015",17:20:21,2,6,"SmallProblem",4,9,"S","I",2,1,4,5,10,0,2,1,3441,1,"arithmetic"
"Arithmetic_Run1",10,1,"06-24-2015",17:20:21,2,6,"SmallProblem",5,6,"S","I",2,2,4,2,8,1,2,2,1418,1,"arithmetic"
"Arithmetic_Run1",10,1,"06-24-2015",17:20:21,2,6,"SmallProblem",6,10,"S","I",2,1,8,2,11,1,2,2,1590,1,"arithmetic"
"Arithmetic_Run1",10,1,"06-24-2015",17:20:21,3,3,"LargeProblem",1,11,"L","I",2,2,8,3,13,1,2,2,1541,1,"arithmetic"
"Arithmetic_Run1",10,1,"06-24-2015",17:20:21,3,3,"LargeProblem",2,12,"L","C",1,0,4,8,12,0,1,2,2280,1,"arithmetic"
"Arithmetic_Run1",10,1,"06-24-2015",17:20:21,3,3,"LargeProblem",3,12,"L","I",2,1,3,9,13,0,2,1,2463,1,"arithmetic"
"Arithmetic_Run1",10,1,"06-24-2015",17:20:21,3,3,"LargeProblem",4,13,"L","I",2,1,9,4,14,1,2,2,1519,1,"arithmetic"
"Arithmetic_Run1",10,1,"06-24-2015",17:20:21,3,3,"LargeProblem",5,13,"L","C",1,0,5,8,13,0,1,2,1834,1,"arithmetic"
"Arithmetic_Run1",10,1,"06-24-2015",17:20:21,3,3,"LargeProblem",6,11,"L","I",2,2,5,6,13,1,2,2,2304,1,"arithmetic"
"Arithmetic_Run1",10,1,"06-24-2015",17:20:21,4,2,"SmallProblem",1,10,"S","C",1,0,6,4,10,1,1,1,895,1,"arithmetic"
"Arithmetic_Run1",10,1,"06-24-2015",17:20:21,4,2,"SmallProblem",2,9,"S","C",1,0,3,6,9,1,1,1,1157,1,"arithmetic"
"Arithmetic_Run1",10,1,"06-24-2015",17:20:21,4,2,"SmallProblem",3,9,"S","C",1,0,2,7,9,0,1,2,1260,1,"arithmetic"
"Arithmetic_Run1",10,1,"06-24-2015",17:20:21,4,2,"SmallProblem",4,8,"S","C",1,0,5,3,8,1,1,1,975,1,"arithmetic"
"Arithmetic_Run1",10,1,"06-24-2015",17:20:21,4,2,"SmallProblem",5,8,"S","C",1,0,6,2,8,1,1,1,2627,1,"arithmetic"
"Arithmetic_Run1",10,1,"06-24-2015",17:20:21,4,2,"SmallProblem",6,7,"S","I",2,1,2,5,8,1,2,2,1403,1,"arithmetic"
"Arithmetic_Run1",10,1,"06-24-2015",17:20:21,5,5,"Plus1",1,6,"Plus1","I",2,2,5,1,8,1,2,2,1388,1,"arithmetic"
"Arithmetic_Run1",10,1,"06-24-2015",17:20:21,5,5,"Plus1",2,4,"Plus1","C",1,0,3,1,4,1,1,1,1256,1,"arithmetic"
"Arithmetic_Run1",10,1,"06-24-2015",17:20:21,5,5,"Plus1",3,7,"Plus1","C",1,0,6,1,7,1,1,1,1779,1,"arithmetic"
"Arithmetic_Run1",10,1,"06-24-2015",17:20:21,5,5,"Plus1",4,3,"Plus1","C",1,0,2,1,3,1,1,1,1480,1,"arithmetic"
"Arithmetic_Run1",10,1,"06-24-2015",17:20:21,5,5,"Plus1",5,4,"Plus1","I",2,1,3,1,5,1,2,2,1601,1,"arithmetic"
"Arithmetic_Run1",10,1,"06-24-2015",17:20:21,5,5,"Plus1",6,8,"Plus1","I",2,1,7,1,9,1,2,2,1883,1,"arithmetic"
"Arithmetic_Run1",10,1,"06-24-2015",17:20:21,6,1,"Plus1",1,9,"Plus1","I",2,2,8,1,11,1,2,2,2423,1,"arithmetic"
"Arithmetic_Run1",10,1,"06-24-2015",17:20:21,6,1,"Plus1",2,8,"Plus1","C",1,0,7,1,8,1,1,1,1040,1,"arithmetic"
"Arithmetic_Run1",10,1,"06-24-2015",17:20:21,6,1,"Plus1",3,5,"Plus1","C",1,0,4,1,5,1,1,1,823,1,"arithmetic"
"Arithmetic_Run1",10,1,"06-24-2015",17:20:21,6,1,"Plus1",4,10,"Plus1","I",2,2,9,1,12,1,2,2,1343,1,"arithmetic"
"Arithmetic_Run1",10,1,"06-24-2015",17:20:21,6,1,"Plus1",5,5,"Plus1","I",2,1,4,1,6,1,2,2,1787,1,"arithmetic"
"Arithmetic_Run1",10,1,"06-24-2015",17:20:21,6,1,"Plus1",6,9,"Plus1","C",1,0,8,1,9,1,1,1,1959,1,"arithmetic"
"Arithmetic_Run2",10,1,"06-24-2015",17:25:52,1,1,"Plus1",1,4,"Plus1","C",1,0,3,1,4,1,1,1,1907,2,"arithmetic"
"Arithmetic_Run2",10,1,"06-24-2015",17:25:52,1,1,"Plus1",2,5,"Plus1","I",2,2,4,1,7,1,2,2,1863,2,"arithmetic"
"Arithmetic_Run2",10,1,"06-24-2015",17:25:52,1,1,"Plus1",3,10,"Plus1","C",1,0,9,1,10,1,1,1,1008,2,"arithmetic"
"Arithmetic_Run2",10,1,"06-24-2015",17:25:52,1,1,"Plus1",4,3,"Plus1","C",1,0,2,1,3,1,1,1,1070,2,"arithmetic"
"Arithmetic_Run2",10,1,"06-24-2015",17:25:52,1,1,"Plus1",5,6,"Plus1","C",1,0,5,1,6,1,1,1,849,2,"arithmetic"
"Arithmetic_Run2",10,1,"06-24-2015",17:25:52,1,1,"Plus1",6,3,"Plus1","I",2,1,2,1,4,1,2,2,1254,2,"arithmetic"
"Arithmetic_Run2",10,1,"06-24-2015",17:25:52,2,6,"SmallProblem",1,7,"S","C",1,0,5,2,7,1,1,1,1135,2,"arithmetic"
"Arithmetic_Run2",10,1,"06-24-2015",17:25:52,2,6,"SmallProblem",2,7,"S","C",1,0,4,3,7,1,1,1,1512,2,"arithmetic"
"Arithmetic_Run2",10,1,"06-24-2015",17:25:52,2,6,"SmallProblem",3,6,"S","C",1,0,2,4,6,1,1,1,2221,2,"arithmetic"
"Arithmetic_Run2",10,1,"06-24-2015",17:25:52,2,6,"SmallProblem",4,10,"S","I",2,1,4,6,11,1,2,2,2187,2,"arithmetic"
"Arithmetic_Run2",10,1,"06-24-2015",17:25:52,2,6,"SmallProblem",5,10,"S","C",1,0,3,7,10,1,1,1,1311,2,"arithmetic"
"Arithmetic_Run2",10,1,"06-24-2015",17:25:52,2,6,"SmallProblem",6,8,"S","I",2,2,3,5,10,1,2,2,1306,2,"arithmetic"
"Arithmetic_Run2",10,1,"06-24-2015",17:25:52,3,5,"Plus1",1,6,"Plus1","I",2,1,5,1,7,1,2,2,1372,2,"arithmetic"
"Arithmetic_Run2",10,1,"06-24-2015",17:25:52,3,5,"Plus1",2,10,"Plus1","I",2,2,9,1,12,1,2,2,1099,2,"arithmetic"
"Arithmetic_Run2",10,1,"06-24-2015",17:25:52,3,5,"Plus1",3,7,"Plus1","I",2,1,6,1,8,0,NA,NA,0,2,"arithmetic"
"Arithmetic_Run2",10,1,"06-24-2015",17:25:52,3,5,"Plus1",4,9,"Plus1","I",2,2,8,1,11,1,2,2,1274,2,"arithmetic"
"Arithmetic_Run2",10,1,"06-24-2015",17:25:52,3,5,"Plus1",5,7,"Plus1","C",1,0,6,1,7,1,1,1,999,2,"arithmetic"
"Arithmetic_Run2",10,1,"06-24-2015",17:25:52,3,5,"Plus1",6,8,"Plus1","C",1,0,7,1,8,1,1,1,1205,2,"arithmetic"
"Arithmetic_Run2",10,1,"06-24-2015",17:25:52,4,3,"LargeProblem",1,14,"L","C",1,0,5,9,14,1,1,1,3381,2,"arithmetic"
"Arithmetic_Run2",10,1,"06-24-2015",17:25:52,4,3,"LargeProblem",2,14,"L","I",2,1,6,8,15,1,2,2,1895,2,"arithmetic"
"Arithmetic_Run2",10,1,"06-24-2015",17:25:52,4,3,"LargeProblem",3,12,"L","I",2,1,8,4,13,1,2,2,2209,2,"arithmetic"
"Arithmetic_Run2",10,1,"06-24-2015",17:25:52,4,3,"LargeProblem",4,11,"L","C",1,0,6,5,11,1,1,1,2094,2,"arithmetic"
"Arithmetic_Run2",10,1,"06-24-2015",17:25:52,4,3,"LargeProblem",5,11,"L","I",2,2,9,2,13,1,2,2,1824,2,"arithmetic"
"Arithmetic_Run2",10,1,"06-24-2015",17:25:52,4,3,"LargeProblem",6,13,"L","I",2,2,8,5,15,0,2,1,1769,2,"arithmetic"
"Arithmetic_Run2",10,1,"06-24-2015",17:25:52,5,4,"LargeProblem",1,11,"L","C",1,0,3,8,11,0,1,2,3644,2,"arithmetic"
"Arithmetic_Run2",10,1,"06-24-2015",17:25:52,5,4,"LargeProblem",2,12,"L","I",2,2,5,7,14,0,2,1,2354,2,"arithmetic"
"Arithmetic_Run2",10,1,"06-24-2015",17:25:52,5,4,"LargeProblem",3,11,"L","I",2,1,4,7,12,0,2,1,1885,2,"arithmetic"
"Arithmetic_Run2",10,1,"06-24-2015",17:25:52,5,4,"LargeProblem",4,12,"L","C",1,0,9,3,12,1,1,1,2004,2,"arithmetic"
"Arithmetic_Run2",10,1,"06-24-2015",17:25:52,5,4,"LargeProblem",5,13,"L","C",1,0,7,6,13,1,1,1,2011,2,"arithmetic"
"Arithmetic_Run2",10,1,"06-24-2015",17:25:52,5,4,"LargeProblem",6,13,"L","C",1,0,4,9,13,1,1,1,2021,2,"arithmetic"
"Arithmetic_Run2",10,1,"06-24-2015",17:25:52,6,2,"SmallProblem",1,5,"S","I",2,2,3,2,7,1,2,2,1568,2,"arithmetic"
"Arithmetic_Run2",10,1,"06-24-2015",17:25:52,6,2,"SmallProblem",2,9,"S","C",1,0,5,4,9,1,1,1,1568,2,"arithmetic"
"Arithmetic_Run2",10,1,"06-24-2015",17:25:52,6,2,"SmallProblem",3,9,"S","I",2,2,6,3,11,1,2,2,1896,2,"arithmetic"
"Arithmetic_Run2",10,1,"06-24-2015",17:25:52,6,2,"SmallProblem",4,10,"S","C",1,0,2,8,10,1,1,1,1171,2,"arithmetic"
"Arithmetic_Run2",10,1,"06-24-2015",17:25:52,6,2,"SmallProblem",5,8,"S","I",2,1,2,6,9,1,2,2,1529,2,"arithmetic"
"Arithmetic_Run2",10,1,"06-24-2015",17:25:52,6,2,"SmallProblem",6,9,"S","I",2,1,7,2,10,1,2,2,1769,2,"arithmetic"
"Arithmetic_Run1",11,1,"06-05-2015",18:27:09,1,4,"LargeProblem",1,11,"L","I",2,2,8,3,13,0,2,1,3907,1,"arithmetic"
"Arithmetic_Run1",11,1,"06-05-2015",18:27:09,1,4,"LargeProblem",2,11,"L","C",1,0,7,4,11,0,1,2,2114,1,"arithmetic"
"Arithmetic_Run1",11,1,"06-05-2015",18:27:09,1,4,"LargeProblem",3,12,"L","C",1,0,4,8,12,0,1,2,1871,1,"arithmetic"
"Arithmetic_Run1",11,1,"06-05-2015",18:27:09,1,4,"LargeProblem",4,11,"L","I",2,2,5,6,13,1,2,2,1121,1,"arithmetic"
"Arithmetic_Run1",11,1,"06-05-2015",18:27:09,1,4,"LargeProblem",5,13,"L","I",2,1,9,4,14,1,2,2,1432,1,"arithmetic"
"Arithmetic_Run1",11,1,"06-05-2015",18:27:09,1,4,"LargeProblem",6,12,"L","I",2,1,3,9,13,1,2,2,1258,1,"arithmetic"
"Arithmetic_Run1",11,1,"06-05-2015",18:27:09,2,6,"SmallProblem",1,9,"S","C",1,0,2,7,9,1,1,1,1738,1,"arithmetic"
"Arithmetic_Run1",11,1,"06-05-2015",18:27:09,2,6,"SmallProblem",2,9,"S","C",1,0,3,6,9,0,1,2,2316,1,"arithmetic"
"Arithmetic_Run1",11,1,"06-05-2015",18:27:09,2,6,"SmallProblem",3,6,"S","I",2,2,4,2,8,0,2,1,1733,1,"arithmetic"
"Arithmetic_Run1",11,1,"06-05-2015",18:27:09,2,6,"SmallProblem",4,10,"S","C",1,0,6,4,10,0,1,2,1721,1,"arithmetic"
"Arithmetic_Run1",11,1,"06-05-2015",18:27:09,2,6,"SmallProblem",5,5,"S","C",1,0,2,3,5,0,1,2,1328,1,"arithmetic"
"Arithmetic_Run1",11,1,"06-05-2015",18:27:09,2,6,"SmallProblem",6,10,"S","I",2,2,7,3,12,0,2,1,4638,1,"arithmetic"
"Arithmetic_Run1",11,1,"06-05-2015",18:27:09,3,3,"LargeProblem",1,11,"L","C",1,0,2,9,11,0,NA,NA,0,1,"arithmetic"
"Arithmetic_Run1",11,1,"06-05-2015",18:27:09,3,3,"LargeProblem",2,13,"L","C",1,0,5,8,13,0,NA,NA,0,1,"arithmetic"
"Arithmetic_Run1",11,1,"06-05-2015",18:27:09,3,3,"LargeProblem",3,12,"L","C",1,0,7,5,12,0,NA,NA,0,1,"arithmetic"
"Arithmetic_Run1",11,1,"06-05-2015",18:27:09,3,3,"LargeProblem",4,13,"L","I",2,1,6,7,14,0,NA,NA,0,1,"arithmetic"
"Arithmetic_Run1",11,1,"06-05-2015",18:27:09,3,3,"LargeProblem",5,14,"L","I",2,2,9,5,16,0,NA,NA,0,1,"arithmetic"
"Arithmetic_Run1",11,1,"06-05-2015",18:27:09,3,3,"LargeProblem",6,14,"L","C",1,0,8,6,14,0,NA,NA,0,1,"arithmetic"
"Arithmetic_Run1",11,1,"06-05-2015",18:27:09,4,2,"SmallProblem",1,7,"S","I",2,1,2,5,8,1,2,2,4639,1,"arithmetic"
"Arithmetic_Run1",11,1,"06-05-2015",18:27:09,4,2,"SmallProblem",2,10,"S","I",2,1,8,2,11,0,2,1,1655,1,"arithmetic"
"Arithmetic_Run1",11,1,"06-05-2015",18:27:09,4,2,"SmallProblem",3,9,"S","I",2,1,4,5,10,0,2,1,1057,1,"arithmetic"
"Arithmetic_Run1",11,1,"06-05-2015",18:27:09,4,2,"SmallProblem",4,8,"S","C",1,0,6,2,8,1,1,1,3707,1,"arithmetic"
"Arithmetic_Run1",11,1,"06-05-2015",18:27:09,4,2,"SmallProblem",5,7,"S","I",2,2,3,4,9,1,2,2,2207,1,"arithmetic"
"Arithmetic_Run1",11,1,"06-05-2015",18:27:09,4,2,"SmallProblem",6,8,"S","C",1,0,5,3,8,1,1,1,100,1,"arithmetic"
"Arithmetic_Run1",11,1,"06-05-2015",18:27:09,5,1,"Plus1",1,4,"Plus1","I",2,1,3,1,5,0,NA,NA,0,1,"arithmetic"
"Arithmetic_Run1",11,1,"06-05-2015",18:27:09,5,1,"Plus1",2,3,"Plus1","C",1,0,2,1,3,0,NA,NA,0,1,"arithmetic"
"Arithmetic_Run1",11,1,"06-05-2015",18:27:09,5,1,"Plus1",3,10,"Plus1","I",2,2,9,1,12,0,NA,NA,0,1,"arithmetic"
"Arithmetic_Run1",11,1,"06-05-2015",18:27:09,5,1,"Plus1",4,6,"Plus1","I",2,2,5,1,8,0,NA,NA,0,1,"arithmetic"
"Arithmetic_Run1",11,1,"06-05-2015",18:27:09,5,1,"Plus1",5,8,"Plus1","C",1,0,7,1,8,0,NA,NA,0,1,"arithmetic"
"Arithmetic_Run1",11,1,"06-05-2015",18:27:09,5,1,"Plus1",6,5,"Plus1","I",2,1,4,1,6,0,NA,NA,0,1,"arithmetic"
"Arithmetic_Run1",11,1,"06-05-2015",18:27:09,6,5,"Plus1",1,7,"Plus1","C",1,0,6,1,7,0,NA,NA,0,1,"arithmetic"
"Arithmetic_Run1",11,1,"06-05-2015",18:27:09,6,5,"Plus1",2,5,"Plus1","C",1,0,4,1,5,0,NA,NA,0,1,"arithmetic"
"Arithmetic_Run1",11,1,"06-05-2015",18:27:09,6,5,"Plus1",3,9,"Plus1","C",1,0,8,1,9,0,NA,NA,0,1,"arithmetic"
"Arithmetic_Run1",11,1,"06-05-2015",18:27:09,6,5,"Plus1",4,8,"Plus1","I",2,1,7,1,9,0,NA,NA,0,1,"arithmetic"
"Arithmetic_Run1",11,1,"06-05-2015",18:27:09,6,5,"Plus1",5,4,"Plus1","C",1,0,3,1,4,0,NA,NA,0,1,"arithmetic"
"Arithmetic_Run1",11,1,"06-05-2015",18:27:09,6,5,"Plus1",6,9,"Plus1","I",2,2,8,1,11,0,NA,NA,0,1,"arithmetic"
"Arithmetic_Run2",11,2,"06-05-2015",18:36:41,1,6,"SmallProblem",1,10,"S","C",1,0,2,8,10,0,1,2,1295,2,"arithmetic"
"Arithmetic_Run2",11,2,"06-05-2015",18:36:41,1,6,"SmallProblem",2,7,"S","C",1,0,5,2,7,1,1,1,2286,2,"arithmetic"
"Arithmetic_Run2",11,2,"06-05-2015",18:36:41,1,6,"SmallProblem",3,10,"S","C",1,0,3,7,10,1,1,1,4455,2,"arithmetic"
"Arithmetic_Run2",11,2,"06-05-2015",18:36:41,1,6,"SmallProblem",4,9,"S","I",2,2,6,3,11,1,2,2,2887,2,"arithmetic"
"Arithmetic_Run2",11,2,"06-05-2015",18:36:41,1,6,"SmallProblem",5,9,"S","C",1,0,5,4,9,1,1,1,2972,2,"arithmetic"
"Arithmetic_Run2",11,2,"06-05-2015",18:36:41,1,6,"SmallProblem",6,9,"S","I",2,1,7,2,10,0,2,1,4575,2,"arithmetic"
"Arithmetic_Run2",11,2,"06-05-2015",18:36:41,2,1,"Plus1",1,7,"Plus1","C",1,0,6,1,7,1,1,1,3494,2,"arithmetic"
"Arithmetic_Run2",11,2,"06-05-2015",18:36:41,2,1,"Plus1",2,10,"Plus1","I",2,2,9,1,12,1,2,2,3668,2,"arithmetic"
"Arithmetic_Run2",11,2,"06-05-2015",18:36:41,2,1,"Plus1",3,5,"Plus1","I",2,2,4,1,7,0,2,1,3192,2,"arithmetic"
"Arithmetic_Run2",11,2,"06-05-2015",18:36:41,2,1,"Plus1",4,3,"Plus1","C",1,0,2,1,3,1,1,1,2962,2,"arithmetic"
"Arithmetic_Run2",11,2,"06-05-2015",18:36:41,2,1,"Plus1",5,3,"Plus1","I",2,1,2,1,4,0,NA,NA,0,2,"arithmetic"
"Arithmetic_Run2",11,2,"06-05-2015",18:36:41,2,1,"Plus1",6,8,"Plus1","C",1,0,7,1,8,1,1,1,2691,2,"arithmetic"
"Arithmetic_Run2",11,2,"06-05-2015",18:36:41,3,2,"SmallProblem",1,7,"S","C",1,0,4,3,7,1,1,1,1096,2,"arithmetic"
"Arithmetic_Run2",11,2,"06-05-2015",18:36:41,3,2,"SmallProblem",2,8,"S","I",2,1,2,6,9,0,2,1,3424,2,"arithmetic"
"Arithmetic_Run2",11,2,"06-05-2015",18:36:41,3,2,"SmallProblem",3,6,"S","C",1,0,2,4,6,1,1,1,3863,2,"arithmetic"
"Arithmetic_Run2",11,2,"06-05-2015",18:36:41,3,2,"SmallProblem",4,10,"S","I",2,1,4,6,11,1,2,2,6268,2,"arithmetic"
"Arithmetic_Run2",11,2,"06-05-2015",18:36:41,3,2,"SmallProblem",5,5,"S","I",2,2,3,2,7,1,2,2,896,2,"arithmetic"
"Arithmetic_Run2",11,2,"06-05-2015",18:36:41,3,2,"SmallProblem",6,8,"S","I",2,2,3,5,10,0,2,1,2516,2,"arithmetic"
"Arithmetic_Run2",11,2,"06-05-2015",18:36:41,4,5,"Plus1",1,4,"Plus1","C",1,0,3,1,4,0,1,2,3387,2,"arithmetic"
"Arithmetic_Run2",11,2,"06-05-2015",18:36:41,4,5,"Plus1",2,6,"Plus1","C",1,0,5,1,6,1,1,1,1964,2,"arithmetic"
"Arithmetic_Run2",11,2,"06-05-2015",18:36:41,4,5,"Plus1",3,6,"Plus1","I",2,1,5,1,7,1,2,2,2008,2,"arithmetic"
"Arithmetic_Run2",11,2,"06-05-2015",18:36:41,4,5,"Plus1",4,7,"Plus1","I",2,1,6,1,8,1,2,2,3469,2,"arithmetic"
"Arithmetic_Run2",11,2,"06-05-2015",18:36:41,4,5,"Plus1",5,9,"Plus1","I",2,2,8,1,11,1,2,2,2850,2,"arithmetic"
"Arithmetic_Run2",11,2,"06-05-2015",18:36:41,4,5,"Plus1",6,10,"Plus1","C",1,0,9,1,10,1,1,1,1972,2,"arithmetic"
"Arithmetic_Run2",11,2,"06-05-2015",18:36:41,5,4,"LargeProblem",1,11,"L","I",2,1,4,7,12,1,2,2,3166,2,"arithmetic"
"Arithmetic_Run2",11,2,"06-05-2015",18:36:41,5,4,"LargeProblem",2,11,"L","I",2,2,9,2,13,1,2,2,3896,2,"arithmetic"
"Arithmetic_Run2",11,2,"06-05-2015",18:36:41,5,4,"LargeProblem",3,11,"L","C",1,0,3,8,11,0,1,2,4949,2,"arithmetic"
"Arithmetic_Run2",11,2,"06-05-2015",18:36:41,5,4,"LargeProblem",4,12,"L","I",2,1,8,4,13,1,2,2,4854,2,"arithmetic"
"Arithmetic_Run2",11,2,"06-05-2015",18:36:41,5,4,"LargeProblem",5,11,"L","C",1,0,6,5,11,1,1,1,3287,2,"arithmetic"
"Arithmetic_Run2",11,2,"06-05-2015",18:36:41,5,4,"LargeProblem",6,13,"L","C",1,0,7,6,13,0,1,2,2819,2,"arithmetic"
"Arithmetic_Run2",11,2,"06-05-2015",18:36:41,6,3,"LargeProblem",1,13,"L","C",1,0,4,9,13,1,1,1,3865,2,"arithmetic"
"Arithmetic_Run2",11,2,"06-05-2015",18:36:41,6,3,"LargeProblem",2,12,"L","I",2,2,5,7,14,1,2,2,4013,2,"arithmetic"
"Arithmetic_Run2",11,2,"06-05-2015",18:36:41,6,3,"LargeProblem",3,12,"L","C",1,0,9,3,12,0,1,2,5409,2,"arithmetic"
"Arithmetic_Run2",11,2,"06-05-2015",18:36:41,6,3,"LargeProblem",4,14,"L","C",1,0,5,9,14,1,1,1,3089,2,"arithmetic"
"Arithmetic_Run2",11,2,"06-05-2015",18:36:41,6,3,"LargeProblem",5,14,"L","I",2,1,6,8,15,1,2,2,2896,2,"arithmetic"
"Arithmetic_Run2",11,2,"06-05-2015",18:36:41,6,3,"LargeProblem",6,13,"L","I",2,2,8,5,15,1,2,2,4237,2,"arithmetic"
"Arithmetic_Run1",13,1,"07-12-2015",14:13:19,1,6,"SmallProblem",1,5,"S","C",1,0,2,3,5,1,1,1,1882,1,"arithmetic"
"Arithmetic_Run1",13,1,"07-12-2015",14:13:19,1,6,"SmallProblem",2,10,"S","C",1,0,6,4,10,1,1,1,1121,1,"arithmetic"
"Arithmetic_Run1",13,1,"07-12-2015",14:13:19,1,6,"SmallProblem",3,10,"S","I",2,1,8,2,11,1,2,2,2679,1,"arithmetic"
"Arithmetic_Run1",13,1,"07-12-2015",14:13:19,1,6,"SmallProblem",4,10,"S","I",2,2,7,3,12,1,2,2,3190,1,"arithmetic"
"Arithmetic_Run1",13,1,"07-12-2015",14:13:19,1,6,"SmallProblem",5,9,"S","I",2,1,4,5,10,1,2,2,3361,1,"arithmetic"
"Arithmetic_Run1",13,1,"07-12-2015",14:13:19,1,6,"SmallProblem",6,7,"S","I",2,2,3,4,9,1,2,2,3802,1,"arithmetic"
"Arithmetic_Run1",13,1,"07-12-2015",14:13:19,2,4,"LargeProblem",1,12,"L","C",1,0,4,8,12,0,NA,NA,0,1,"arithmetic"
"Arithmetic_Run1",13,1,"07-12-2015",14:13:19,2,4,"LargeProblem",2,11,"L","C",1,0,7,4,11,1,1,1,1894,1,"arithmetic"
"Arithmetic_Run1",13,1,"07-12-2015",14:13:19,2,4,"LargeProblem",3,11,"L","C",1,0,2,9,11,1,1,1,4182,1,"arithmetic"
"Arithmetic_Run1",13,1,"07-12-2015",14:13:19,2,4,"LargeProblem",4,14,"L","I",2,2,9,5,16,1,2,2,5334,1,"arithmetic"
"Arithmetic_Run1",13,1,"07-12-2015",14:13:19,2,4,"LargeProblem",5,13,"L","I",2,1,9,4,14,1,2,2,3546,1,"arithmetic"
"Arithmetic_Run1",13,1,"07-12-2015",14:13:19,2,4,"LargeProblem",6,12,"L","C",1,0,7,5,12,1,1,1,2658,1,"arithmetic"
"Arithmetic_Run1",13,1,"07-12-2015",14:13:19,3,3,"LargeProblem",1,13,"L","C",1,0,5,8,13,1,1,1,4925,1,"arithmetic"
"Arithmetic_Run1",13,1,"07-12-2015",14:13:19,3,3,"LargeProblem",2,12,"L","I",2,1,3,9,13,1,2,2,4983,1,"arithmetic"
"Arithmetic_Run1",13,1,"07-12-2015",14:13:19,3,3,"LargeProblem",3,11,"L","I",2,2,5,6,13,1,2,2,5558,1,"arithmetic"
"Arithmetic_Run1",13,1,"07-12-2015",14:13:19,3,3,"LargeProblem",4,11,"L","I",2,2,8,3,13,1,2,2,4990,1,"arithmetic"
"Arithmetic_Run1",13,1,"07-12-2015",14:13:19,3,3,"LargeProblem",5,13,"L","I",2,1,6,7,14,0,NA,NA,0,1,"arithmetic"
"Arithmetic_Run1",13,1,"07-12-2015",14:13:19,3,3,"LargeProblem",6,14,"L","C",1,0,8,6,14,0,1,2,217,1,"arithmetic"
"Arithmetic_Run1",13,1,"07-12-2015",14:13:19,4,2,"SmallProblem",1,6,"S","I",2,2,4,2,8,1,2,2,4428,1,"arithmetic"
"Arithmetic_Run1",13,1,"07-12-2015",14:13:19,4,2,"SmallProblem",2,9,"S","C",1,0,3,6,9,1,1,1,3912,1,"arithmetic"
"Arithmetic_Run1",13,1,"07-12-2015",14:13:19,4,2,"SmallProblem",3,9,"S","C",1,0,2,7,9,1,1,1,1534,1,"arithmetic"
"Arithmetic_Run1",13,1,"07-12-2015",14:13:19,4,2,"SmallProblem",4,8,"S","C",1,0,6,2,8,1,1,1,2769,1,"arithmetic"
"Arithmetic_Run1",13,1,"07-12-2015",14:13:19,4,2,"SmallProblem",5,7,"S","I",2,1,2,5,8,1,2,2,2479,1,"arithmetic"
"Arithmetic_Run1",13,1,"07-12-2015",14:13:19,4,2,"SmallProblem",6,8,"S","C",1,0,5,3,8,0,NA,NA,0,1,"arithmetic"
"Arithmetic_Run1",13,1,"07-12-2015",14:13:19,5,5,"Plus1",1,9,"Plus1","C",1,0,8,1,9,0,1,2,1514,1,"arithmetic"
"Arithmetic_Run1",13,1,"07-12-2015",14:13:19,5,5,"Plus1",2,10,"Plus1","I",2,2,9,1,12,1,2,2,1701,1,"arithmetic"
"Arithmetic_Run1",13,1,"07-12-2015",14:13:19,5,5,"Plus1",3,8,"Plus1","I",2,1,7,1,9,1,2,2,2524,1,"arithmetic"
"Arithmetic_Run1",13,1,"07-12-2015",14:13:19,5,5,"Plus1",4,5,"Plus1","I",2,1,4,1,6,1,2,2,1916,1,"arithmetic"
"Arithmetic_Run1",13,1,"07-12-2015",14:13:19,5,5,"Plus1",5,6,"Plus1","I",2,2,5,1,8,1,2,2,4039,1,"arithmetic"
"Arithmetic_Run1",13,1,"07-12-2015",14:13:19,5,5,"Plus1",6,9,"Plus1","I",2,2,8,1,11,1,2,2,3382,1,"arithmetic"
"Arithmetic_Run1",13,1,"07-12-2015",14:13:19,6,1,"Plus1",1,4,"Plus1","I",2,1,3,1,5,1,2,2,2215,1,"arithmetic"
"Arithmetic_Run1",13,1,"07-12-2015",14:13:19,6,1,"Plus1",2,7,"Plus1","C",1,0,6,1,7,1,1,1,4748,1,"arithmetic"
"Arithmetic_Run1",13,1,"07-12-2015",14:13:19,6,1,"Plus1",3,5,"Plus1","C",1,0,4,1,5,1,1,1,3732,1,"arithmetic"
"Arithmetic_Run1",13,1,"07-12-2015",14:13:19,6,1,"Plus1",4,4,"Plus1","C",1,0,3,1,4,1,1,1,2221,1,"arithmetic"
"Arithmetic_Run1",13,1,"07-12-2015",14:13:19,6,1,"Plus1",5,3,"Plus1","C",1,0,2,1,3,1,1,1,2104,1,"arithmetic"
"Arithmetic_Run1",13,1,"07-12-2015",14:13:19,6,1,"Plus1",6,8,"Plus1","C",1,0,7,1,8,1,1,1,2392,1,"arithmetic"
"Arithmetic_Run2",13,2,"07-12-2015",14:24:03,1,2,"SmallProblem",1,6,"S","C",1,0,2,4,6,1,1,1,2897,2,"arithmetic"
"Arithmetic_Run2",13,2,"07-12-2015",14:24:03,1,2,"SmallProblem",2,9,"S","C",1,0,5,4,9,1,1,1,4312,2,"arithmetic"
"Arithmetic_Run2",13,2,"07-12-2015",14:24:03,1,2,"SmallProblem",3,7,"S","C",1,0,5,2,7,1,1,1,2269,2,"arithmetic"
"Arithmetic_Run2",13,2,"07-12-2015",14:24:03,1,2,"SmallProblem",4,10,"S","I",2,1,4,6,11,1,2,2,2809,2,"arithmetic"
"Arithmetic_Run2",13,2,"07-12-2015",14:24:03,1,2,"SmallProblem",5,7,"S","C",1,0,4,3,7,1,1,1,3368,2,"arithmetic"
"Arithmetic_Run2",13,2,"07-12-2015",14:24:03,1,2,"SmallProblem",6,8,"S","I",2,2,3,5,10,1,2,2,2097,2,"arithmetic"
"Arithmetic_Run2",13,2,"07-12-2015",14:24:03,2,4,"LargeProblem",1,11,"L","I",2,1,4,7,12,0,NA,NA,0,2,"arithmetic"
"Arithmetic_Run2",13,2,"07-12-2015",14:24:03,2,4,"LargeProblem",2,13,"L","C",1,0,7,6,13,0,1,2,515,2,"arithmetic"
"Arithmetic_Run2",13,2,"07-12-2015",14:24:03,2,4,"LargeProblem",3,11,"L","I",2,2,9,2,13,1,2,2,4247,2,"arithmetic"
"Arithmetic_Run2",13,2,"07-12-2015",14:24:03,2,4,"LargeProblem",4,13,"L","C",1,0,4,9,13,0,NA,NA,0,2,"arithmetic"
"Arithmetic_Run2",13,2,"07-12-2015",14:24:03,2,4,"LargeProblem",5,14,"L","C",1,0,5,9,14,0,NA,NA,0,2,"arithmetic"
"Arithmetic_Run2",13,2,"07-12-2015",14:24:03,2,4,"LargeProblem",6,11,"L","C",1,0,6,5,11,1,1,1,1803,2,"arithmetic"
"Arithmetic_Run2",13,2,"07-12-2015",14:24:03,3,6,"SmallProblem",1,10,"S","C",1,0,3,7,10,1,1,1,1915,2,"arithmetic"
"Arithmetic_Run2",13,2,"07-12-2015",14:24:03,3,6,"SmallProblem",2,9,"S","I",2,2,6,3,11,1,2,2,5774,2,"arithmetic"
"Arithmetic_Run2",13,2,"07-12-2015",14:24:03,3,6,"SmallProblem",3,9,"S","I",2,1,7,2,10,1,2,2,5817,2,"arithmetic"
"Arithmetic_Run2",13,2,"07-12-2015",14:24:03,3,6,"SmallProblem",4,10,"S","C",1,0,2,8,10,1,1,1,1875,2,"arithmetic"
"Arithmetic_Run2",13,2,"07-12-2015",14:24:03,3,6,"SmallProblem",5,5,"S","I",2,2,3,2,7,0,NA,NA,0,2,"arithmetic"
"Arithmetic_Run2",13,2,"07-12-2015",14:24:03,3,6,"SmallProblem",6,8,"S","I",2,1,2,6,9,1,2,2,54,2,"arithmetic"
"Arithmetic_Run2",13,2,"07-12-2015",14:24:03,4,1,"Plus1",1,3,"Plus1","I",2,1,2,1,4,1,2,2,3801,2,"arithmetic"
"Arithmetic_Run2",13,2,"07-12-2015",14:24:03,4,1,"Plus1",2,6,"Plus1","I",2,1,5,1,7,1,2,2,2232,2,"arithmetic"
"Arithmetic_Run2",13,2,"07-12-2015",14:24:03,4,1,"Plus1",3,7,"Plus1","C",1,0,6,1,7,0,1,2,5127,2,"arithmetic"
"Arithmetic_Run2",13,2,"07-12-2015",14:24:03,4,1,"Plus1",4,5,"Plus1","I",2,2,4,1,7,1,2,2,5606,2,"arithmetic"
"Arithmetic_Run2",13,2,"07-12-2015",14:24:03,4,1,"Plus1",5,10,"Plus1","C",1,0,9,1,10,0,1,2,3659,2,"arithmetic"
"Arithmetic_Run2",13,2,"07-12-2015",14:24:03,4,1,"Plus1",6,3,"Plus1","C",1,0,2,1,3,1,1,1,2912,2,"arithmetic"
"Arithmetic_Run2",13,2,"07-12-2015",14:24:03,5,5,"Plus1",1,6,"Plus1","C",1,0,5,1,6,1,1,1,1361,2,"arithmetic"
"Arithmetic_Run2",13,2,"07-12-2015",14:24:03,5,5,"Plus1",2,7,"Plus1","I",2,1,6,1,8,1,2,2,2482,2,"arithmetic"
"Arithmetic_Run2",13,2,"07-12-2015",14:24:03,5,5,"Plus1",3,4,"Plus1","C",1,0,3,1,4,0,NA,NA,0,2,"arithmetic"
"Arithmetic_Run2",13,2,"07-12-2015",14:24:03,5,5,"Plus1",4,10,"Plus1","I",2,2,9,1,12,0,2,1,477,2,"arithmetic"
"Arithmetic_Run2",13,2,"07-12-2015",14:24:03,5,5,"Plus1",5,9,"Plus1","I",2,2,8,1,11,0,NA,NA,0,2,"arithmetic"
"Arithmetic_Run2",13,2,"07-12-2015",14:24:03,5,5,"Plus1",6,8,"Plus1","C",1,0,7,1,8,1,1,1,3344,2,"arithmetic"
"Arithmetic_Run2",13,2,"07-12-2015",14:24:03,6,3,"LargeProblem",1,13,"L","I",2,2,8,5,15,1,2,2,2807,2,"arithmetic"
"Arithmetic_Run2",13,2,"07-12-2015",14:24:03,6,3,"LargeProblem",2,12,"L","C",1,0,9,3,12,1,1,1,1759,2,"arithmetic"
"Arithmetic_Run2",13,2,"07-12-2015",14:24:03,6,3,"LargeProblem",3,11,"L","C",1,0,3,8,11,1,1,1,1532,2,"arithmetic"
"Arithmetic_Run2",13,2,"07-12-2015",14:24:03,6,3,"LargeProblem",4,12,"L","I",2,2,5,7,14,1,2,2,1631,2,"arithmetic"
