"ExperimentName","Subject","Session","SessionDate","SessionTime","Block","metablock","TaskType","Trial","CorrectResponse","ITIs","left_stim","right_stim","task.ACC","task.RESP","task.RT","run"
"Matching_Run1",1,1,"05-12-2015",19:33:59,1,5,"ShapeMatching",1,1,3,"S2","S2",1,1,1455,1
"Matching_Run1",1,1,"05-12-2015",19:33:59,1,5,"ShapeMatching",2,2,1,"S5","S6",1,2,980,1
"Matching_Run1",1,1,"05-12-2015",19:33:59,1,5,"ShapeMatching",3,1,2,"S6","S6",1,1,1151,1
"Matching_Run1",1,1,"05-12-2015",19:33:59,1,5,"ShapeMatching",4,2,3,"S9","S1",1,2,1063,1
"Matching_Run1",1,1,"05-12-2015",19:33:59,1,5,"ShapeMatching",5,1,1,"S1","S1",1,1,606,1
"Matching_Run1",1,1,"05-12-2015",19:33:59,1,5,"ShapeMatching",6,1,2,"S9","S9",1,1,1268,1
"Matching_Run1",1,1,"05-12-2015",19:33:59,2,4,"ShapeMatching",1,1,1,"S5","S5",1,1,1471,1
"Matching_Run1",1,1,"05-12-2015",19:33:59,2,4,"ShapeMatching",2,2,3,"S3","S4",1,2,1179,1
"Matching_Run1",1,1,"05-12-2015",19:33:59,2,4,"ShapeMatching",3,2,2,"S7","S8",1,2,1120,1
"Matching_Run1",1,1,"05-12-2015",19:33:59,2,4,"ShapeMatching",4,2,3,"S2","S3",1,2,1364,1
"Matching_Run1",1,1,"05-12-2015",19:33:59,2,4,"ShapeMatching",5,1,2,"S4","S4",0,2,1030,1
"Matching_Run1",1,1,"05-12-2015",19:33:59,2,4,"ShapeMatching",6,1,1,"S3","S3",1,1,1289,1
"Matching_Run1",1,1,"05-12-2015",19:33:59,3,6,"ShapeMatching",1,2,2,"S1","S2",1,2,1520,1
"Matching_Run1",1,1,"05-12-2015",19:33:59,3,6,"ShapeMatching",2,2,1,"S6","S7",1,2,1061,1
"Matching_Run1",1,1,"05-12-2015",19:33:59,3,6,"ShapeMatching",3,2,3,"S4","S5",1,2,1083,1
"Matching_Run1",1,1,"05-12-2015",19:33:59,3,6,"ShapeMatching",4,1,1,"S7","S7",1,1,1377,1
"Matching_Run1",1,1,"05-12-2015",19:33:59,3,6,"ShapeMatching",5,2,3,"S8","S9",1,2,1265,1
"Matching_Run1",1,1,"05-12-2015",19:33:59,3,6,"ShapeMatching",6,1,2,"S8","S8",1,1,1146,1
"Matching_Run1",1,1,"05-12-2015",19:33:59,4,1,"NumberMatching",1,2,1,"N9","D7_2",0,NA,0,1
"Matching_Run1",1,1,"05-12-2015",19:33:59,4,1,"NumberMatching",2,1,3,"N1","D1_1",1,1,1452,1
"Matching_Run1",1,1,"05-12-2015",19:33:59,4,1,"NumberMatching",3,1,2,"D2_2","N2",1,1,1149,1
"Matching_Run1",1,1,"05-12-2015",19:33:59,4,1,"NumberMatching",4,1,1,"D4_2","N4",1,1,1089,1
"Matching_Run1",1,1,"05-12-2015",19:33:59,4,1,"NumberMatching",5,2,3,"D8_1","N5",1,2,1613,1
"Matching_Run1",1,1,"05-12-2015",19:33:59,4,1,"NumberMatching",6,1,2,"N5","D5_1",1,1,1289,1
"Matching_Run1",1,1,"05-12-2015",19:33:59,5,3,"NumberMatching",1,2,3,"N5","D1_2",1,2,1308,1
"Matching_Run1",1,1,"05-12-2015",19:33:59,5,3,"NumberMatching",2,1,2,"D8_2","N8",0,2,1667,1
"Matching_Run1",1,1,"05-12-2015",19:33:59,5,3,"NumberMatching",3,1,1,"D6_2","N6",0,NA,0,1
"Matching_Run1",1,1,"05-12-2015",19:33:59,5,3,"NumberMatching",4,1,3,"N7","D7_1",1,1,1586,1
"Matching_Run1",1,1,"05-12-2015",19:33:59,5,3,"NumberMatching",5,2,1,"D4_1","N8",1,2,987,1
"Matching_Run1",1,1,"05-12-2015",19:33:59,5,3,"NumberMatching",6,2,2,"D6_1","N3",1,2,1170,1
"Matching_Run1",1,1,"05-12-2015",19:33:59,6,2,"NumberMatching",1,2,1,"N3","D5_2",1,2,1089,1
"Matching_Run1",1,1,"05-12-2015",19:33:59,6,2,"NumberMatching",2,2,3,"D2_1","N5",1,2,1173,1
"Matching_Run1",1,1,"05-12-2015",19:33:59,6,2,"NumberMatching",3,2,2,"N1","D4_2",1,2,861,1
"Matching_Run1",1,1,"05-12-2015",19:33:59,6,2,"NumberMatching",4,2,1,"N7","D4_2",1,2,1734,1
"Matching_Run1",1,1,"05-12-2015",19:33:59,6,2,"NumberMatching",5,1,2,"N9","D9_1",1,1,1554,1
"Matching_Run1",1,1,"05-12-2015",19:33:59,6,2,"NumberMatching",6,1,3,"N3","D3_1",1,1,1800,1
"Matching_Run1",2,1,"05-13-2015",20:01:50,1,4,"ShapeMatching",1,1,3,"S1","S1",1,1,2104,1
"Matching_Run1",2,1,"05-13-2015",20:01:50,1,4,"ShapeMatching",2,1,1,"S5","S5",1,1,1186,1
"Matching_Run1",2,1,"05-13-2015",20:01:50,1,4,"ShapeMatching",3,1,2,"S9","S9",1,1,1513,1
"Matching_Run1",2,1,"05-13-2015",20:01:50,1,4,"ShapeMatching",4,2,3,"S5","S6",1,2,1403,1
"Matching_Run1",2,1,"05-13-2015",20:01:50,1,4,"ShapeMatching",5,2,1,"S4","S5",1,2,1506,1
"Matching_Run1",2,1,"05-13-2015",20:01:50,1,4,"ShapeMatching",6,1,2,"S6","S6",1,1,1795,1
"Matching_Run1",2,1,"05-13-2015",20:01:50,2,3,"NumberMatching",1,2,3,"D8_1","N5",0,1,2315,1
"Matching_Run1",2,1,"05-13-2015",20:01:50,2,3,"NumberMatching",2,2,2,"D6_1","N3",1,2,270,1
"Matching_Run1",2,1,"05-13-2015",20:01:50,2,3,"NumberMatching",3,1,1,"D2_2","N2",1,1,1738,1
"Matching_Run1",2,1,"05-13-2015",20:01:50,2,3,"NumberMatching",4,1,2,"N9","D9_1",0,NA,0,1
"Matching_Run1",2,1,"05-13-2015",20:01:50,2,3,"NumberMatching",5,1,3,"N3","D3_1",1,1,295,1
"Matching_Run1",2,1,"05-13-2015",20:01:50,2,3,"NumberMatching",6,2,1,"N1","D4_2",1,2,1769,1
"Matching_Run1",2,1,"05-13-2015",20:01:50,3,6,"ShapeMatching",1,1,2,"S2","S2",1,1,2471,1
"Matching_Run1",2,1,"05-13-2015",20:01:50,3,6,"ShapeMatching",2,1,1,"S3","S3",1,1,1237,1
"Matching_Run1",2,1,"05-13-2015",20:01:50,3,6,"ShapeMatching",3,1,3,"S8","S8",1,1,1572,1
"Matching_Run1",2,1,"05-13-2015",20:01:50,3,6,"ShapeMatching",4,2,2,"S3","S4",1,2,2276,1
"Matching_Run1",2,1,"05-13-2015",20:01:50,3,6,"ShapeMatching",5,2,1,"S6","S7",1,2,1349,1
"Matching_Run1",2,1,"05-13-2015",20:01:50,3,6,"ShapeMatching",6,2,3,"S8","S9",1,2,1465,1
"Matching_Run1",2,1,"05-13-2015",20:01:50,4,1,"NumberMatching",1,2,2,"N9","D7_2",0,1,3391,1
"Matching_Run1",2,1,"05-13-2015",20:01:50,4,1,"NumberMatching",2,1,1,"D8_2","N8",0,2,1126,1
"Matching_Run1",2,1,"05-13-2015",20:01:50,4,1,"NumberMatching",3,1,3,"D4_2","N4",1,1,1963,1
"Matching_Run1",2,1,"05-13-2015",20:01:50,4,1,"NumberMatching",4,1,2,"N1","D1_1",1,1,1310,1
"Matching_Run1",2,1,"05-13-2015",20:01:50,4,1,"NumberMatching",5,1,3,"N5","D5_1",1,1,1783,1
"Matching_Run1",2,1,"05-13-2015",20:01:50,4,1,"NumberMatching",6,1,1,"D6_2","N6",0,NA,0,1
"Matching_Run1",2,1,"05-13-2015",20:01:50,5,5,"ShapeMatching",1,1,3,"S4","S4",1,1,1800,1
"Matching_Run1",2,1,"05-13-2015",20:01:50,5,5,"ShapeMatching",2,2,2,"S1","S2",1,2,1709,1
"Matching_Run1",2,1,"05-13-2015",20:01:50,5,5,"ShapeMatching",3,2,1,"S2","S3",1,2,2201,1
"Matching_Run1",2,1,"05-13-2015",20:01:50,5,5,"ShapeMatching",4,2,3,"S7","S8",1,2,1263,1
"Matching_Run1",2,1,"05-13-2015",20:01:50,5,5,"ShapeMatching",5,2,1,"S9","S1",1,2,1593,1
"Matching_Run1",2,1,"05-13-2015",20:01:50,5,5,"ShapeMatching",6,1,2,"S7","S7",1,1,1388,1
"Matching_Run1",2,1,"05-13-2015",20:01:50,6,2,"NumberMatching",1,2,3,"N5","D1_2",1,2,1770,1
"Matching_Run1",2,1,"05-13-2015",20:01:50,6,2,"NumberMatching",2,2,2,"D4_1","N8",1,2,2091,1
"Matching_Run1",2,1,"05-13-2015",20:01:50,6,2,"NumberMatching",3,2,1,"D2_1","N5",1,2,1730,1
"Matching_Run1",2,1,"05-13-2015",20:01:50,6,2,"NumberMatching",4,2,3,"N3","D5_2",1,2,1603,1
"Matching_Run1",2,1,"05-13-2015",20:01:50,6,2,"NumberMatching",5,2,2,"N7","D4_2",1,2,1750,1
"Matching_Run1",2,1,"05-13-2015",20:01:50,6,2,"NumberMatching",6,1,1,"N7","D7_1",0,NA,0,1
"Matching_Run1",3,1,"05-14-2015",17:44:32,1,1,"NumberMatching",1,1,2,"N1","D1_1",1,1,1801,1
"Matching_Run1",3,1,"05-14-2015",17:44:32,1,1,"NumberMatching",2,1,3,"N7","D7_1",0,2,3896,1
"Matching_Run1",3,1,"05-14-2015",17:44:32,1,1,"NumberMatching",3,2,1,"D2_1","N5",1,2,1938,1
"Matching_Run1",3,1,"05-14-2015",17:44:32,1,1,"NumberMatching",4,1,3,"D8_2","N8",0,NA,0,1
"Matching_Run1",3,1,"05-14-2015",17:44:32,1,1,"NumberMatching",5,2,1,"D6_1","N3",1,2,2594,1
"Matching_Run1",3,1,"05-14-2015",17:44:32,1,1,"NumberMatching",6,2,2,"N1","D4_2",1,2,2022,1
"Matching_Run1",3,1,"05-14-2015",17:44:32,2,3,"NumberMatching",1,2,1,"D4_1","N8",1,2,1391,1
"Matching_Run1",3,1,"05-14-2015",17:44:32,2,3,"NumberMatching",2,1,2,"D2_2","N2",1,1,1672,1
"Matching_Run1",3,1,"05-14-2015",17:44:32,2,3,"NumberMatching",3,2,3,"D8_1","N5",1,2,1907,1
"Matching_Run1",3,1,"05-14-2015",17:44:32,2,3,"NumberMatching",4,2,2,"N7","D4_2",1,2,1633,1
"Matching_Run1",3,1,"05-14-2015",17:44:32,2,3,"NumberMatching",5,2,3,"N3","D5_2",0,NA,0,1
"Matching_Run1",3,1,"05-14-2015",17:44:32,2,3,"NumberMatching",6,1,1,"D4_2","N4",1,1,1772,1
"Matching_Run1",3,1,"05-14-2015",17:44:32,3,4,"ShapeMatching",1,2,2,"S9","S1",1,2,1734,1
"Matching_Run1",3,1,"05-14-2015",17:44:32,3,4,"ShapeMatching",2,1,1,"S7","S7",1,1,1451,1
"Matching_Run1",3,1,"05-14-2015",17:44:32,3,4,"ShapeMatching",3,1,3,"S1","S1",1,1,1433,1
"Matching_Run1",3,1,"05-14-2015",17:44:32,3,4,"ShapeMatching",4,1,1,"S8","S8",1,1,1164,1
"Matching_Run1",3,1,"05-14-2015",17:44:32,3,4,"ShapeMatching",5,2,3,"S5","S6",1,2,1670,1
"Matching_Run1",3,1,"05-14-2015",17:44:32,3,4,"ShapeMatching",6,1,2,"S5","S5",1,1,1010,1
"Matching_Run1",3,1,"05-14-2015",17:44:32,4,5,"ShapeMatching",1,2,3,"S2","S3",1,2,1395,1
"Matching_Run1",3,1,"05-14-2015",17:44:32,4,5,"ShapeMatching",2,2,2,"S4","S5",1,2,1838,1
"Matching_Run1",3,1,"05-14-2015",17:44:32,4,5,"ShapeMatching",3,1,1,"S6","S6",1,1,1745,1
"Matching_Run1",3,1,"05-14-2015",17:44:32,4,5,"ShapeMatching",4,2,3,"S8","S9",1,2,2091,1
"Matching_Run1",3,1,"05-14-2015",17:44:32,4,5,"ShapeMatching",5,2,2,"S3","S4",1,2,1781,1
"Matching_Run1",3,1,"05-14-2015",17:44:32,4,5,"ShapeMatching",6,1,1,"S9","S9",1,1,2381,1
"Matching_Run1",3,1,"05-14-2015",17:44:32,5,6,"ShapeMatching",1,2,2,"S6","S7",1,2,1657,1
"Matching_Run1",3,1,"05-14-2015",17:44:32,5,6,"ShapeMatching",2,1,3,"S4","S4",1,1,874,1
"Matching_Run1",3,1,"05-14-2015",17:44:32,5,6,"ShapeMatching",3,2,1,"S1","S2",1,2,1958,1
"Matching_Run1",3,1,"05-14-2015",17:44:32,5,6,"ShapeMatching",4,1,3,"S3","S3",0,2,2177,1
"Matching_Run1",3,1,"05-14-2015",17:44:32,5,6,"ShapeMatching",5,2,2,"S7","S8",1,2,2087,1
"Matching_Run1",3,1,"05-14-2015",17:44:32,5,6,"ShapeMatching",6,1,1,"S2","S2",1,1,1123,1
"Matching_Run1",3,1,"05-14-2015",17:44:32,6,2,"NumberMatching",1,1,2,"D6_2","N6",0,2,2105,1
"Matching_Run1",3,1,"05-14-2015",17:44:32,6,2,"NumberMatching",2,1,1,"N5","D5_1",1,1,2129,1
"Matching_Run1",3,1,"05-14-2015",17:44:32,6,2,"NumberMatching",3,2,3,"N9","D7_2",0,1,3720,1
"Matching_Run1",3,1,"05-14-2015",17:44:32,6,2,"NumberMatching",4,1,1,"N9","D9_1",1,1,1430,1
"Matching_Run1",3,1,"05-14-2015",17:44:32,6,2,"NumberMatching",5,2,3,"N5","D1_2",1,2,1737,1
"Matching_Run1",3,1,"05-14-2015",17:44:32,6,2,"NumberMatching",6,1,2,"N3","D3_1",1,1,1622,1
"Matching_Run1",4,1,"05-12-2015",17:16:07,1,6,"ShapeMatching",1,2,3,"S7","S8",0,1,2238,1
"Matching_Run1",4,1,"05-12-2015",17:16:07,1,6,"ShapeMatching",2,2,2,"S2","S3",1,2,1422,1
"Matching_Run1",4,1,"05-12-2015",17:16:07,1,6,"ShapeMatching",3,2,1,"S1","S2",1,2,1378,1
"Matching_Run1",4,1,"05-12-2015",17:16:07,1,6,"ShapeMatching",4,2,3,"S8","S9",1,2,1078,1
"Matching_Run1",4,1,"05-12-2015",17:16:07,1,6,"ShapeMatching",5,1,2,"S3","S3",1,1,930,1
"Matching_Run1",4,1,"05-12-2015",17:16:07,1,6,"ShapeMatching",6,1,1,"S6","S6",1,1,965,1
"Matching_Run1",4,1,"05-12-2015",17:16:07,2,2,"NumberMatching",1,1,3,"N3","D3_1",1,1,1565,1
"Matching_Run1",4,1,"05-12-2015",17:16:07,2,2,"NumberMatching",2,1,1,"N5","D5_1",0,NA,0,1
"Matching_Run1",4,1,"05-12-2015",17:16:07,2,2,"NumberMatching",3,2,2,"N9","D7_2",0,1,1733,1
"Matching_Run1",4,1,"05-12-2015",17:16:07,2,2,"NumberMatching",4,1,1,"N7","D7_1",0,NA,0,1
"Matching_Run1",4,1,"05-12-2015",17:16:07,2,2,"NumberMatching",5,1,2,"D6_2","N6",0,NA,0,1
"Matching_Run1",4,1,"05-12-2015",17:16:07,2,2,"NumberMatching",6,2,3,"D4_1","N8",0,1,295,1
"Matching_Run1",4,1,"05-12-2015",17:16:07,3,4,"ShapeMatching",1,1,1,"S4","S4",1,1,971,1
"Matching_Run1",4,1,"05-12-2015",17:16:07,3,4,"ShapeMatching",2,1,3,"S1","S1",0,NA,0,1
"Matching_Run1",4,1,"05-12-2015",17:16:07,3,4,"ShapeMatching",3,2,2,"S4","S5",1,2,864,1
"Matching_Run1",4,1,"05-12-2015",17:16:07,3,4,"ShapeMatching",4,2,1,"S6","S7",1,2,2291,1
"Matching_Run1",4,1,"05-12-2015",17:16:07,3,4,"ShapeMatching",5,1,2,"S8","S8",1,1,1037,1
"Matching_Run1",4,1,"05-12-2015",17:16:07,3,4,"ShapeMatching",6,1,3,"S9","S9",1,1,1239,1
"Matching_Run1",4,1,"05-12-2015",17:16:07,4,5,"ShapeMatching",1,2,2,"S9","S1",1,2,1322,1
"Matching_Run1",4,1,"05-12-2015",17:16:07,4,5,"ShapeMatching",2,1,1,"S7","S7",1,1,1036,1
"Matching_Run1",4,1,"05-12-2015",17:16:07,4,5,"ShapeMatching",3,1,3,"S2","S2",1,1,1496,1
"Matching_Run1",4,1,"05-12-2015",17:16:07,4,5,"ShapeMatching",4,1,1,"S5","S5",1,1,1300,1
"Matching_Run1",4,1,"05-12-2015",17:16:07,4,5,"ShapeMatching",5,2,3,"S3","S4",0,NA,0,1
"Matching_Run1",4,1,"05-12-2015",17:16:07,4,5,"ShapeMatching",6,2,2,"S5","S6",1,2,1592,1
"Matching_Run1",4,1,"05-12-2015",17:16:07,5,3,"NumberMatching",1,2,3,"N3","D5_2",1,2,1766,1
"Matching_Run1",4,1,"05-12-2015",17:16:07,5,3,"NumberMatching",2,2,2,"D6_1","N3",1,2,2074,1
"Matching_Run1",4,1,"05-12-2015",17:16:07,5,3,"NumberMatching",3,1,1,"D4_2","N4",1,1,2003,1
"Matching_Run1",4,1,"05-12-2015",17:16:07,5,3,"NumberMatching",4,1,3,"D8_2","N8",0,NA,0,1
"Matching_Run1",4,1,"05-12-2015",17:16:07,5,3,"NumberMatching",5,2,1,"D8_1","N5",1,2,2094,1
"Matching_Run1",4,1,"05-12-2015",17:16:07,5,3,"NumberMatching",6,1,2,"D2_2","N2",1,1,1799,1
"Matching_Run1",4,1,"05-12-2015",17:16:07,6,1,"NumberMatching",1,1,3,"N9","D9_1",1,1,3202,1
"Matching_Run1",4,1,"05-12-2015",17:16:07,6,1,"NumberMatching",2,2,1,"N7","D4_2",1,2,1782,1
"Matching_Run1",4,1,"05-12-2015",17:16:07,6,1,"NumberMatching",3,1,2,"N1","D1_1",1,1,1531,1
"Matching_Run1",4,1,"05-12-2015",17:16:07,6,1,"NumberMatching",4,2,3,"N1","D4_2",0,1,2371,1
"Matching_Run1",4,1,"05-12-2015",17:16:07,6,1,"NumberMatching",5,2,2,"D2_1","N5",0,NA,0,1
"Matching_Run1",4,1,"05-12-2015",17:16:07,6,1,"NumberMatching",6,2,1,"N5","D1_2",0,NA,0,1
"Matching_Run1",5,1,"05-12-2015",18:22:29,1,3,"NumberMatching",1,2,3,"N3","D5_2",1,2,1398,1
"Matching_Run1",5,1,"05-12-2015",18:22:29,1,3,"NumberMatching",2,1,2,"D6_2","N6",1,1,2151,1
"Matching_Run1",5,1,"05-12-2015",18:22:29,1,3,"NumberMatching",3,2,1,"N5","D1_2",1,2,933,1
"Matching_Run1",5,1,"05-12-2015",18:22:29,1,3,"NumberMatching",4,1,3,"N9","D9_1",1,1,2582,1
"Matching_Run1",5,1,"05-12-2015",18:22:29,1,3,"NumberMatching",5,2,2,"D2_1","N5",1,2,872,1
"Matching_Run1",5,1,"05-12-2015",18:22:29,1,3,"NumberMatching",6,2,1,"N9","D7_2",1,2,2248,1
"Matching_Run1",5,1,"05-12-2015",18:22:29,2,1,"NumberMatching",1,1,3,"N1","D1_1",1,1,1522,1
"Matching_Run1",5,1,"05-12-2015",18:22:29,2,1,"NumberMatching",2,1,2,"D4_2","N4",1,1,1280,1
"Matching_Run1",5,1,"05-12-2015",18:22:29,2,1,"NumberMatching",3,2,1,"D8_1","N5",1,2,1135,1
"Matching_Run1",5,1,"05-12-2015",18:22:29,2,1,"NumberMatching",4,1,3,"N3","D3_1",1,1,834,1
"Matching_Run1",5,1,"05-12-2015",18:22:29,2,1,"NumberMatching",5,1,2,"N7","D7_1",0,NA,0,1
"Matching_Run1",5,1,"05-12-2015",18:22:29,2,1,"NumberMatching",6,2,1,"N1","D4_2",0,1,40,1
"Matching_Run1",5,1,"05-12-2015",18:22:29,3,5,"ShapeMatching",1,1,3,"S8","S8",1,1,944,1
"Matching_Run1",5,1,"05-12-2015",18:22:29,3,5,"ShapeMatching",2,1,1,"S6","S6",1,1,696,1
"Matching_Run1",5,1,"05-12-2015",18:22:29,3,5,"ShapeMatching",3,1,2,"S9","S9",1,1,725,1
"Matching_Run1",5,1,"05-12-2015",18:22:29,3,5,"ShapeMatching",4,2,3,"S9","S1",1,2,867,1
"Matching_Run1",5,1,"05-12-2015",18:22:29,3,5,"ShapeMatching",5,2,1,"S8","S9",1,2,1402,1
"Matching_Run1",5,1,"05-12-2015",18:22:29,3,5,"ShapeMatching",6,2,2,"S4","S5",1,2,912,1
"Matching_Run1",5,1,"05-12-2015",18:22:29,4,6,"ShapeMatching",1,2,3,"S7","S8",1,2,1119,1
"Matching_Run1",5,1,"05-12-2015",18:22:29,4,6,"ShapeMatching",2,1,2,"S7","S7",1,1,1440,1
"Matching_Run1",5,1,"05-12-2015",18:22:29,4,6,"ShapeMatching",3,1,1,"S5","S5",1,1,1468,1
"Matching_Run1",5,1,"05-12-2015",18:22:29,4,6,"ShapeMatching",4,2,3,"S1","S2",1,2,1222,1
"Matching_Run1",5,1,"05-12-2015",18:22:29,4,6,"ShapeMatching",5,2,1,"S6","S7",1,2,865,1
"Matching_Run1",5,1,"05-12-2015",18:22:29,4,6,"ShapeMatching",6,2,2,"S3","S4",1,2,931,1
"Matching_Run1",5,1,"05-12-2015",18:22:29,5,2,"NumberMatching",1,1,1,"D2_2","N2",1,1,1160,1
"Matching_Run1",5,1,"05-12-2015",18:22:29,5,2,"NumberMatching",2,2,3,"D4_1","N8",1,2,971,1
"Matching_Run1",5,1,"05-12-2015",18:22:29,5,2,"NumberMatching",3,2,2,"D6_1","N3",1,2,1096,1
"Matching_Run1",5,1,"05-12-2015",18:22:29,5,2,"NumberMatching",4,1,1,"N5","D5_1",1,1,1254,1
"Matching_Run1",5,1,"05-12-2015",18:22:29,5,2,"NumberMatching",5,1,3,"D8_2","N8",1,1,2120,1
"Matching_Run1",5,1,"05-12-2015",18:22:29,5,2,"NumberMatching",6,2,2,"N7","D4_2",1,2,847,1
"Matching_Run1",5,1,"05-12-2015",18:22:29,6,4,"ShapeMatching",1,1,1,"S4","S4",1,1,966,1
"Matching_Run1",5,1,"05-12-2015",18:22:29,6,4,"ShapeMatching",2,2,2,"S2","S3",1,2,880,1
"Matching_Run1",5,1,"05-12-2015",18:22:29,6,4,"ShapeMatching",3,1,3,"S3","S3",1,1,948,1
"Matching_Run1",5,1,"05-12-2015",18:22:29,6,4,"ShapeMatching",4,1,1,"S1","S1",1,1,877,1
"Matching_Run1",5,1,"05-12-2015",18:22:29,6,4,"ShapeMatching",5,2,2,"S5","S6",1,2,1193,1
"Matching_Run1",5,1,"05-12-2015",18:22:29,6,4,"ShapeMatching",6,1,3,"S2","S2",1,1,838,1
"Matching_Run1",6,1,"05-23-2015",14:41:28,1,4,"ShapeMatching",1,1,2,"S1","S1",1,1,1261,1
"Matching_Run1",6,1,"05-23-2015",14:41:28,1,4,"ShapeMatching",2,2,3,"S5","S6",1,2,1610,1
"Matching_Run1",6,1,"05-23-2015",14:41:28,1,4,"ShapeMatching",3,2,1,"S2","S3",1,2,1291,1
"Matching_Run1",6,1,"05-23-2015",14:41:28,1,4,"ShapeMatching",4,1,2,"S3","S3",0,2,1915,1
"Matching_Run1",6,1,"05-23-2015",14:41:28,1,4,"ShapeMatching",5,2,3,"S7","S8",1,2,1878,1
"Matching_Run1",6,1,"05-23-2015",14:41:28,1,4,"ShapeMatching",6,1,1,"S9","S9",1,1,2009,1
"Matching_Run1",6,1,"05-23-2015",14:41:28,2,2,"NumberMatching",1,2,2,"D2_1","N5",0,NA,0,1
"Matching_Run1",6,1,"05-23-2015",14:41:28,2,2,"NumberMatching",2,2,1,"N9","D7_2",0,NA,0,1
"Matching_Run1",6,1,"05-23-2015",14:41:28,2,2,"NumberMatching",3,2,3,"D6_1","N3",1,2,1522,1
"Matching_Run1",6,1,"05-23-2015",14:41:28,2,2,"NumberMatching",4,2,2,"N7","D4_2",1,2,2419,1
"Matching_Run1",6,1,"05-23-2015",14:41:28,2,2,"NumberMatching",5,1,3,"N5","D5_1",1,1,2411,1
"Matching_Run1",6,1,"05-23-2015",14:41:28,2,2,"NumberMatching",6,1,1,"N3","D3_1",1,1,1302,1
"Matching_Run1",6,1,"05-23-2015",14:41:28,3,3,"NumberMatching",1,2,2,"N1","D4_2",1,2,1858,1
"Matching_Run1",6,1,"05-23-2015",14:41:28,3,3,"NumberMatching",2,2,1,"N5","D1_2",1,2,2447,1
"Matching_Run1",6,1,"05-23-2015",14:41:28,3,3,"NumberMatching",3,1,3,"N1","D1_1",1,1,1431,1
"Matching_Run1",6,1,"05-23-2015",14:41:28,3,3,"NumberMatching",4,1,1,"D2_2","N2",1,1,1304,1
"Matching_Run1",6,1,"05-23-2015",14:41:28,3,3,"NumberMatching",5,1,2,"N9","D9_1",1,1,1581,1
"Matching_Run1",6,1,"05-23-2015",14:41:28,3,3,"NumberMatching",6,1,3,"D6_2","N6",0,2,2066,1
"Matching_Run1",6,1,"05-23-2015",14:41:28,4,1,"NumberMatching",1,2,2,"D8_1","N5",1,2,1696,1
"Matching_Run1",6,1,"05-23-2015",14:41:28,4,1,"NumberMatching",2,1,3,"D4_2","N4",1,1,1498,1
"Matching_Run1",6,1,"05-23-2015",14:41:28,4,1,"NumberMatching",3,2,1,"D4_1","N8",1,2,1367,1
"Matching_Run1",6,1,"05-23-2015",14:41:28,4,1,"NumberMatching",4,2,2,"N3","D5_2",1,2,1504,1
"Matching_Run1",6,1,"05-23-2015",14:41:28,4,1,"NumberMatching",5,1,1,"N7","D7_1",0,2,1686,1
"Matching_Run1",6,1,"05-23-2015",14:41:28,4,1,"NumberMatching",6,1,3,"D8_2","N8",1,1,1101,1
"Matching_Run1",6,1,"05-23-2015",14:41:28,5,6,"ShapeMatching",1,2,2,"S3","S4",1,2,2198,1
"Matching_Run1",6,1,"05-23-2015",14:41:28,5,6,"ShapeMatching",2,1,1,"S7","S7",1,1,1796,1
"Matching_Run1",6,1,"05-23-2015",14:41:28,5,6,"ShapeMatching",3,1,3,"S4","S4",1,1,1138,1
"Matching_Run1",6,1,"05-23-2015",14:41:28,5,6,"ShapeMatching",4,2,2,"S1","S2",0,NA,0,1
"Matching_Run1",6,1,"05-23-2015",14:41:28,5,6,"ShapeMatching",5,2,1,"S4","S5",0,1,1657,1
"Matching_Run1",6,1,"05-23-2015",14:41:28,5,6,"ShapeMatching",6,1,3,"S6","S6",1,1,914,1
"Matching_Run1",6,1,"05-23-2015",14:41:28,6,5,"ShapeMatching",1,1,2,"S2","S2",1,1,2269,1
"Matching_Run1",6,1,"05-23-2015",14:41:28,6,5,"ShapeMatching",2,2,3,"S8","S9",1,2,1986,1
"Matching_Run1",6,1,"05-23-2015",14:41:28,6,5,"ShapeMatching",3,2,1,"S6","S7",1,2,1976,1
"Matching_Run1",6,1,"05-23-2015",14:41:28,6,5,"ShapeMatching",4,1,3,"S5","S5",1,1,2071,1
"Matching_Run1",6,1,"05-23-2015",14:41:28,6,5,"ShapeMatching",5,1,2,"S8","S8",1,1,1709,1
"Matching_Run1",6,1,"05-23-2015",14:41:28,6,5,"ShapeMatching",6,2,1,"S9","S1",1,2,1891,1
"Matching_Run1",7,1,"06-28-2015",10:59:29,1,2,"NumberMatching",1,1,2,"D8_2","N8",0,NA,0,1
"Matching_Run1",7,1,"06-28-2015",10:59:29,1,2,"NumberMatching",2,1,1,"N1","D1_1",1,1,1289,1
"Matching_Run1",7,1,"06-28-2015",10:59:29,1,2,"NumberMatching",3,2,3,"N5","D1_2",1,2,1723,1
"Matching_Run1",7,1,"06-28-2015",10:59:29,1,2,"NumberMatching",4,1,2,"N9","D9_1",0,NA,0,1
"Matching_Run1",7,1,"06-28-2015",10:59:29,1,2,"NumberMatching",5,1,3,"N5","D5_1",1,1,1341,1
"Matching_Run1",7,1,"06-28-2015",10:59:29,1,2,"NumberMatching",6,1,1,"N7","D7_1",0,NA,0,1
"Matching_Run1",7,1,"06-28-2015",10:59:29,2,1,"NumberMatching",1,1,3,"N3","D3_1",1,1,1464,1
"Matching_Run1",7,1,"06-28-2015",10:59:29,2,1,"NumberMatching",2,2,1,"N1","D4_2",1,2,1997,1
"Matching_Run1",7,1,"06-28-2015",10:59:29,2,1,"NumberMatching",3,2,2,"N7","D4_2",1,2,1853,1
"Matching_Run1",7,1,"06-28-2015",10:59:29,2,1,"NumberMatching",4,1,1,"D6_2","N6",0,NA,0,1
"Matching_Run1",7,1,"06-28-2015",10:59:29,2,1,"NumberMatching",5,1,2,"D4_2","N4",1,1,2143,1
"Matching_Run1",7,1,"06-28-2015",10:59:29,2,1,"NumberMatching",6,2,3,"D8_1","N5",0,NA,0,1
"Matching_Run1",7,1,"06-28-2015",10:59:29,3,5,"ShapeMatching",1,2,2,"S4","S5",1,2,2243,1
"Matching_Run1",7,1,"06-28-2015",10:59:29,3,5,"ShapeMatching",2,1,1,"S5","S5",1,1,1490,1
"Matching_Run1",7,1,"06-28-2015",10:59:29,3,5,"ShapeMatching",3,1,3,"S8","S8",1,1,2597,1
"Matching_Run1",7,1,"06-28-2015",10:59:29,3,5,"ShapeMatching",4,2,1,"S5","S6",1,2,1437,1
"Matching_Run1",7,1,"06-28-2015",10:59:29,3,5,"ShapeMatching",5,2,2,"S7","S8",1,2,2774,1
"Matching_Run1",7,1,"06-28-2015",10:59:29,3,5,"ShapeMatching",6,1,3,"S9","S9",1,1,1325,1
"Matching_Run1",7,1,"06-28-2015",10:59:29,4,6,"ShapeMatching",1,2,1,"S2","S3",1,2,2431,1
"Matching_Run1",7,1,"06-28-2015",10:59:29,4,6,"ShapeMatching",2,1,3,"S3","S3",1,1,1037,1
"Matching_Run1",7,1,"06-28-2015",10:59:29,4,6,"ShapeMatching",3,2,2,"S8","S9",1,2,712,1
"Matching_Run1",7,1,"06-28-2015",10:59:29,4,6,"ShapeMatching",4,1,3,"S2","S2",1,1,892,1
"Matching_Run1",7,1,"06-28-2015",10:59:29,4,6,"ShapeMatching",5,2,2,"S3","S4",1,2,1218,1
"Matching_Run1",7,1,"06-28-2015",10:59:29,4,6,"ShapeMatching",6,2,1,"S1","S2",1,2,1906,1
"Matching_Run1",7,1,"06-28-2015",10:59:29,5,4,"ShapeMatching",1,2,3,"S9","S1",1,2,1924,1
"Matching_Run1",7,1,"06-28-2015",10:59:29,5,4,"ShapeMatching",2,1,2,"S7","S7",1,1,2560,1
"Matching_Run1",7,1,"06-28-2015",10:59:29,5,4,"ShapeMatching",3,1,1,"S4","S4",0,NA,0,1
"Matching_Run1",7,1,"06-28-2015",10:59:29,5,4,"ShapeMatching",4,2,2,"S6","S7",0,1,145,1
"Matching_Run1",7,1,"06-28-2015",10:59:29,5,4,"ShapeMatching",5,1,1,"S6","S6",0,NA,0,1
"Matching_Run1",7,1,"06-28-2015",10:59:29,5,4,"ShapeMatching",6,1,3,"S1","S1",1,1,1610,1
"Matching_Run1",7,1,"06-28-2015",10:59:29,6,3,"NumberMatching",1,1,1,"D2_2","N2",0,NA,0,1
"Matching_Run1",7,1,"06-28-2015",10:59:29,6,3,"NumberMatching",2,2,2,"N9","D7_2",0,1,2694,1
"Matching_Run1",7,1,"06-28-2015",10:59:29,6,3,"NumberMatching",3,2,3,"N3","D5_2",1,2,3625,1
"Matching_Run1",7,1,"06-28-2015",10:59:29,6,3,"NumberMatching",4,2,2,"D6_1","N3",0,1,2809,1
"Matching_Run1",7,1,"06-28-2015",10:59:29,6,3,"NumberMatching",5,2,1,"D4_1","N8",1,2,2057,1
"Matching_Run1",7,1,"06-28-2015",10:59:29,6,3,"NumberMatching",6,2,3,"D2_1","N5",0,NA,0,1
"Matching_Run1",8,1,"05-30-2015",12:08:39,1,4,"ShapeMatching",1,1,1,"S9","S9",1,1,1473,1
"Matching_Run1",8,1,"05-30-2015",12:08:39,1,4,"ShapeMatching",2,1,3,"S7","S7",1,1,831,1
"Matching_Run1",8,1,"05-30-2015",12:08:39,1,4,"ShapeMatching",3,1,2,"S1","S1",1,1,684,1
"Matching_Run1",8,1,"05-30-2015",12:08:39,1,4,"ShapeMatching",4,1,1,"S6","S6",1,1,756,1
"Matching_Run1",8,1,"05-30-2015",12:08:39,1,4,"ShapeMatching",5,2,2,"S3","S4",1,2,946,1
"Matching_Run1",8,1,"05-30-2015",12:08:39,1,4,"ShapeMatching",6,2,3,"S1","S2",1,2,872,1
"Matching_Run1",8,1,"05-30-2015",12:08:39,2,3,"NumberMatching",1,1,1,"D8_2","N8",1,1,1742,1
"Matching_Run1",8,1,"05-30-2015",12:08:39,2,3,"NumberMatching",2,1,3,"D4_2","N4",1,1,1732,1
"Matching_Run1",8,1,"05-30-2015",12:08:39,2,3,"NumberMatching",3,2,2,"D6_1","N3",1,2,1677,1
"Matching_Run1",8,1,"05-30-2015",12:08:39,2,3,"NumberMatching",4,1,1,"D6_2","N6",1,1,1637,1
"Matching_Run1",8,1,"05-30-2015",12:08:39,2,3,"NumberMatching",5,1,3,"N9","D9_1",1,1,1750,1
"Matching_Run1",8,1,"05-30-2015",12:08:39,2,3,"NumberMatching",6,2,2,"N3","D5_2",1,2,1420,1
"Matching_Run1",8,1,"05-30-2015",12:08:39,3,6,"ShapeMatching",1,2,1,"S4","S5",1,2,1556,1
"Matching_Run1",8,1,"05-30-2015",12:08:39,3,6,"ShapeMatching",2,2,2,"S7","S8",1,2,1418,1
"Matching_Run1",8,1,"05-30-2015",12:08:39,3,6,"ShapeMatching",3,2,3,"S9","S1",1,2,1003,1
"Matching_Run1",8,1,"05-30-2015",12:08:39,3,6,"ShapeMatching",4,2,1,"S6","S7",1,2,871,1
"Matching_Run1",8,1,"05-30-2015",12:08:39,3,6,"ShapeMatching",5,1,3,"S2","S2",1,1,1110,1
"Matching_Run1",8,1,"05-30-2015",12:08:39,3,6,"ShapeMatching",6,1,2,"S3","S3",1,1,1105,1
"Matching_Run1",8,1,"05-30-2015",12:08:39,4,5,"ShapeMatching",1,1,1,"S8","S8",1,1,953,1
"Matching_Run1",8,1,"05-30-2015",12:08:39,4,5,"ShapeMatching",2,1,3,"S5","S5",1,1,1142,1
"Matching_Run1",8,1,"05-30-2015",12:08:39,4,5,"ShapeMatching",3,2,2,"S8","S9",1,2,1007,1
"Matching_Run1",8,1,"05-30-2015",12:08:39,4,5,"ShapeMatching",4,2,3,"S5","S6",1,2,1336,1
"Matching_Run1",8,1,"05-30-2015",12:08:39,4,5,"ShapeMatching",5,2,1,"S2","S3",1,2,1410,1
"Matching_Run1",8,1,"05-30-2015",12:08:39,4,5,"ShapeMatching",6,1,2,"S4","S4",0,2,1513,1
"Matching_Run1",8,1,"05-30-2015",12:08:39,5,1,"NumberMatching",1,1,3,"N7","D7_1",1,1,1674,1
"Matching_Run1",8,1,"05-30-2015",12:08:39,5,1,"NumberMatching",2,1,2,"D2_2","N2",1,1,1137,1
"Matching_Run1",8,1,"05-30-2015",12:08:39,5,1,"NumberMatching",3,2,1,"D4_1","N8",1,2,1462,1
"Matching_Run1",8,1,"05-30-2015",12:08:39,5,1,"NumberMatching",4,2,2,"D8_1","N5",1,2,1576,1
"Matching_Run1",8,1,"05-30-2015",12:08:39,5,1,"NumberMatching",5,2,3,"N7","D4_2",1,2,1355,1
"Matching_Run1",8,1,"05-30-2015",12:08:39,5,1,"NumberMatching",6,2,1,"N5","D1_2",1,2,1416,1
"Matching_Run1",8,1,"05-30-2015",12:08:39,6,2,"NumberMatching",1,1,3,"N5","D5_1",1,1,1720,1
"Matching_Run1",8,1,"05-30-2015",12:08:39,6,2,"NumberMatching",2,1,1,"N1","D1_1",1,1,1104,1
"Matching_Run1",8,1,"05-30-2015",12:08:39,6,2,"NumberMatching",3,1,2,"N3","D3_1",1,1,1549,1
"Matching_Run1",8,1,"05-30-2015",12:08:39,6,2,"NumberMatching",4,2,1,"D2_1","N5",1,2,1249,1
"Matching_Run1",8,1,"05-30-2015",12:08:39,6,2,"NumberMatching",5,2,2,"N9","D7_2",0,1,1647,1
"Matching_Run1",8,1,"05-30-2015",12:08:39,6,2,"NumberMatching",6,2,3,"N1","D4_2",1,2,1344,1
"Matching_Run1",9,1,"06-29-2015",17:07:07,1,2,"NumberMatching",1,2,3,"N9","D7_2",1,2,3334,1
"Matching_Run1",9,1,"06-29-2015",17:07:07,1,2,"NumberMatching",2,1,2,"N3","D3_1",1,1,1321,1
"Matching_Run1",9,1,"06-29-2015",17:07:07,1,2,"NumberMatching",3,1,1,"D2_2","N2",1,1,975,1
"Matching_Run1",9,1,"06-29-2015",17:07:07,1,2,"NumberMatching",4,1,3,"N7","D7_1",0,2,3438,1
"Matching_Run1",9,1,"06-29-2015",17:07:07,1,2,"NumberMatching",5,2,1,"D2_1","N5",1,2,1775,1
"Matching_Run1",9,1,"06-29-2015",17:07:07,1,2,"NumberMatching",6,2,2,"N5","D1_2",1,2,1563,1
"Matching_Run1",9,1,"06-29-2015",17:07:07,2,5,"ShapeMatching",1,1,1,"S6","S6",1,1,2030,1
"Matching_Run1",9,1,"06-29-2015",17:07:07,2,5,"ShapeMatching",2,1,2,"S1","S1",1,1,1049,1
"Matching_Run1",9,1,"06-29-2015",17:07:07,2,5,"ShapeMatching",3,1,3,"S5","S5",1,1,1056,1
"Matching_Run1",9,1,"06-29-2015",17:07:07,2,5,"ShapeMatching",4,1,1,"S8","S8",1,1,813,1
"Matching_Run1",9,1,"06-29-2015",17:07:07,2,5,"ShapeMatching",5,2,3,"S4","S5",1,2,1027,1
"Matching_Run1",9,1,"06-29-2015",17:07:07,2,5,"ShapeMatching",6,1,2,"S3","S3",1,1,1009,1
"Matching_Run1",9,1,"06-29-2015",17:07:07,3,1,"NumberMatching",1,1,3,"N5","D5_1",0,2,2736,1
"Matching_Run1",9,1,"06-29-2015",17:07:07,3,1,"NumberMatching",2,2,2,"D6_1","N3",1,2,1158,1
"Matching_Run1",9,1,"06-29-2015",17:07:07,3,1,"NumberMatching",3,1,1,"N1","D1_1",1,1,938,1
"Matching_Run1",9,1,"06-29-2015",17:07:07,3,1,"NumberMatching",4,1,2,"N9","D9_1",0,2,1370,1
"Matching_Run1",9,1,"06-29-2015",17:07:07,3,1,"NumberMatching",5,2,1,"D4_1","N8",1,2,2006,1
"Matching_Run1",9,1,"06-29-2015",17:07:07,3,1,"NumberMatching",6,1,3,"D6_2","N6",1,1,3092,1
"Matching_Run1",9,1,"06-29-2015",17:07:07,4,3,"NumberMatching",1,1,2,"D4_2","N4",1,1,1616,1
"Matching_Run1",9,1,"06-29-2015",17:07:07,4,3,"NumberMatching",2,2,1,"N7","D4_2",0,1,2140,1
"Matching_Run1",9,1,"06-29-2015",17:07:07,4,3,"NumberMatching",3,1,3,"D8_2","N8",1,1,2194,1
"Matching_Run1",9,1,"06-29-2015",17:07:07,4,3,"NumberMatching",4,2,1,"N1","D4_2",1,2,1432,1
"Matching_Run1",9,1,"06-29-2015",17:07:07,4,3,"NumberMatching",5,2,3,"D8_1","N5",1,2,1153,1
"Matching_Run1",9,1,"06-29-2015",17:07:07,4,3,"NumberMatching",6,2,2,"N3","D5_2",1,2,1461,1
"Matching_Run1",9,1,"06-29-2015",17:07:07,5,4,"ShapeMatching",1,2,1,"S6","S7",1,2,1647,1
"Matching_Run1",9,1,"06-29-2015",17:07:07,5,4,"ShapeMatching",2,1,3,"S9","S9",1,1,1256,1
"Matching_Run1",9,1,"06-29-2015",17:07:07,5,4,"ShapeMatching",3,2,2,"S9","S1",1,2,974,1
"Matching_Run1",9,1,"06-29-2015",17:07:07,5,4,"ShapeMatching",4,1,1,"S4","S4",1,1,800,1
"Matching_Run1",9,1,"06-29-2015",17:07:07,5,4,"ShapeMatching",5,2,2,"S2","S3",1,2,776,1
"Matching_Run1",9,1,"06-29-2015",17:07:07,5,4,"ShapeMatching",6,2,3,"S8","S9",1,2,2728,1
"Matching_Run1",9,1,"06-29-2015",17:07:07,6,6,"ShapeMatching",1,2,2,"S3","S4",1,2,1420,1
"Matching_Run1",9,1,"06-29-2015",17:07:07,6,6,"ShapeMatching",2,2,3,"S7","S8",1,2,1586,1
"Matching_Run1",9,1,"06-29-2015",17:07:07,6,6,"ShapeMatching",3,1,1,"S2","S2",1,1,2155,1
"Matching_Run1",9,1,"06-29-2015",17:07:07,6,6,"ShapeMatching",4,1,3,"S7","S7",0,2,1304,1
"Matching_Run1",9,1,"06-29-2015",17:07:07,6,6,"ShapeMatching",5,2,2,"S5","S6",1,2,930,1
"Matching_Run1",9,1,"06-29-2015",17:07:07,6,6,"ShapeMatching",6,2,1,"S1","S2",1,2,1709,1
"Matching_Run1",10,1,"06-24-2015",17:16:11,1,2,"NumberMatching",1,1,2,"N3","D3_1",1,1,1147,1
"Matching_Run1",10,1,"06-24-2015",17:16:11,1,2,"NumberMatching",2,2,1,"N1","D4_2",1,2,1347,1
"Matching_Run1",10,1,"06-24-2015",17:16:11,1,2,"NumberMatching",3,1,3,"D2_2","N2",1,1,709,1
"Matching_Run1",10,1,"06-24-2015",17:16:11,1,2,"NumberMatching",4,2,1,"N5","D1_2",0,1,729,1
"Matching_Run1",10,1,"06-24-2015",17:16:11,1,2,"NumberMatching",5,1,2,"D4_2","N4",1,1,1001,1
"Matching_Run1",10,1,"06-24-2015",17:16:11,1,2,"NumberMatching",6,2,3,"N3","D5_2",1,2,1033,1
"Matching_Run1",10,1,"06-24-2015",17:16:11,2,5,"ShapeMatching",1,1,1,"S6","S6",1,1,937,1
"Matching_Run1",10,1,"06-24-2015",17:16:11,2,5,"ShapeMatching",2,2,2,"S1","S2",1,2,1256,1
"Matching_Run1",10,1,"06-24-2015",17:16:11,2,5,"ShapeMatching",3,1,3,"S2","S2",1,1,903,1
"Matching_Run1",10,1,"06-24-2015",17:16:11,2,5,"ShapeMatching",4,1,2,"S8","S8",1,1,852,1
"Matching_Run1",10,1,"06-24-2015",17:16:11,2,5,"ShapeMatching",5,2,1,"S9","S1",1,2,1062,1
"Matching_Run1",10,1,"06-24-2015",17:16:11,2,5,"ShapeMatching",6,2,3,"S3","S4",0,1,1087,1
"Matching_Run1",10,1,"06-24-2015",17:16:11,3,3,"NumberMatching",1,1,2,"N1","D1_1",1,1,1262,1
"Matching_Run1",10,1,"06-24-2015",17:16:11,3,3,"NumberMatching",2,2,3,"N7","D4_2",1,2,1031,1
"Matching_Run1",10,1,"06-24-2015",17:16:11,3,3,"NumberMatching",3,2,1,"D8_1","N5",1,2,938,1
"Matching_Run1",10,1,"06-24-2015",17:16:11,3,3,"NumberMatching",4,2,2,"N9","D7_2",0,1,756,1
"Matching_Run1",10,1,"06-24-2015",17:16:11,3,3,"NumberMatching",5,2,3,"D4_1","N8",1,2,1260,1
"Matching_Run1",10,1,"06-24-2015",17:16:11,3,3,"NumberMatching",6,2,1,"D6_1","N3",1,2,1102,1
"Matching_Run1",10,1,"06-24-2015",17:16:11,4,4,"ShapeMatching",1,1,3,"S9","S9",0,2,1025,1
"Matching_Run1",10,1,"06-24-2015",17:16:11,4,4,"ShapeMatching",2,1,2,"S3","S3",1,1,882,1
"Matching_Run1",10,1,"06-24-2015",17:16:11,4,4,"ShapeMatching",3,1,1,"S1","S1",1,1,850,1
"Matching_Run1",10,1,"06-24-2015",17:16:11,4,4,"ShapeMatching",4,1,3,"S7","S7",1,1,732,1
"Matching_Run1",10,1,"06-24-2015",17:16:11,4,4,"ShapeMatching",5,1,1,"S5","S5",1,1,853,1
"Matching_Run1",10,1,"06-24-2015",17:16:11,4,4,"ShapeMatching",6,2,2,"S8","S9",1,2,1022,1
"Matching_Run1",10,1,"06-24-2015",17:16:11,5,6,"ShapeMatching",1,2,3,"S4","S5",1,2,842,1
"Matching_Run1",10,1,"06-24-2015",17:16:11,5,6,"ShapeMatching",2,1,1,"S4","S4",0,2,1300,1
"Matching_Run1",10,1,"06-24-2015",17:16:11,5,6,"ShapeMatching",3,2,2,"S6","S7",1,2,1288,1
"Matching_Run1",10,1,"06-24-2015",17:16:11,5,6,"ShapeMatching",4,2,1,"S7","S8",1,2,1397,1
"Matching_Run1",10,1,"06-24-2015",17:16:11,5,6,"ShapeMatching",5,2,2,"S2","S3",1,2,1093,1
"Matching_Run1",10,1,"06-24-2015",17:16:11,5,6,"ShapeMatching",6,2,3,"S5","S6",1,2,1033,1
"Matching_Run1",10,1,"06-24-2015",17:16:11,6,1,"NumberMatching",1,1,1,"N7","D7_1",1,1,1140,1
"Matching_Run1",10,1,"06-24-2015",17:16:11,6,1,"NumberMatching",2,1,3,"D6_2","N6",0,2,1407,1
"Matching_Run1",10,1,"06-24-2015",17:16:11,6,1,"NumberMatching",3,1,2,"N9","D9_1",1,1,1162,1
"Matching_Run1",10,1,"06-24-2015",17:16:11,6,1,"NumberMatching",4,1,1,"D8_2","N8",0,2,1363,1
"Matching_Run1",10,1,"06-24-2015",17:16:11,6,1,"NumberMatching",5,2,2,"D2_1","N5",1,2,1192,1
"Matching_Run1",10,1,"06-24-2015",17:16:11,6,1,"NumberMatching",6,1,3,"N5","D5_1",1,1,953,1
"Matching_Run1",11,1,"06-05-2015",18:09:32,1,3,"NumberMatching",1,1,1,"N7","D7_1",0,NA,0,1
"Matching_Run1",11,1,"06-05-2015",18:09:32,1,3,"NumberMatching",2,1,3,"N3","D3_1",1,1,708,1
"Matching_Run1",11,1,"06-05-2015",18:09:32,1,3,"NumberMatching",3,2,2,"D8_1","N5",1,2,1412,1
"Matching_Run1",11,1,"06-05-2015",18:09:32,1,3,"NumberMatching",4,1,3,"N1","D1_1",1,1,963,1
"Matching_Run1",11,1,"06-05-2015",18:09:32,1,3,"NumberMatching",5,2,1,"D4_1","N8",0,NA,0,1
"Matching_Run1",11,1,"06-05-2015",18:09:32,1,3,"NumberMatching",6,2,2,"N7","D4_2",1,2,203,1
"Matching_Run1",11,1,"06-05-2015",18:09:32,2,6,"ShapeMatching",1,2,3,"S6","S7",0,1,2594,1
"Matching_Run1",11,1,"06-05-2015",18:09:32,2,6,"ShapeMatching",2,1,2,"S9","S9",0,2,413,1
"Matching_Run1",11,1,"06-05-2015",18:09:32,2,6,"ShapeMatching",3,2,1,"S1","S2",0,1,1124,1
"Matching_Run1",11,1,"06-05-2015",18:09:32,2,6,"ShapeMatching",4,1,3,"S2","S2",1,1,1027,1
"Matching_Run1",11,1,"06-05-2015",18:09:32,2,6,"ShapeMatching",5,2,1,"S5","S6",1,2,1456,1
"Matching_Run1",11,1,"06-05-2015",18:09:32,2,6,"ShapeMatching",6,2,2,"S4","S5",1,2,1019,1
"Matching_Run1",11,1,"06-05-2015",18:09:32,3,5,"ShapeMatching",1,2,3,"S8","S9",1,2,1339,1
"Matching_Run1",11,1,"06-05-2015",18:09:32,3,5,"ShapeMatching",2,2,2,"S2","S3",1,2,1209,1
"Matching_Run1",11,1,"06-05-2015",18:09:32,3,5,"ShapeMatching",3,1,1,"S5","S5",0,2,1249,1
"Matching_Run1",11,1,"06-05-2015",18:09:32,3,5,"ShapeMatching",4,2,2,"S7","S8",0,1,983,1
"Matching_Run1",11,1,"06-05-2015",18:09:32,3,5,"ShapeMatching",5,1,1,"S4","S4",1,1,981,1
"Matching_Run1",11,1,"06-05-2015",18:09:32,3,5,"ShapeMatching",6,1,3,"S6","S6",1,1,1858,1
"Matching_Run1",11,1,"06-05-2015",18:09:32,4,4,"ShapeMatching",1,1,1,"S1","S1",0,NA,0,1
"Matching_Run1",11,1,"06-05-2015",18:09:32,4,4,"ShapeMatching",2,2,3,"S9","S1",1,2,1857,1
"Matching_Run1",11,1,"06-05-2015",18:09:32,4,4,"ShapeMatching",3,2,2,"S3","S4",0,1,1156,1
"Matching_Run1",11,1,"06-05-2015",18:09:32,4,4,"ShapeMatching",4,1,1,"S7","S7",1,1,1450,1
"Matching_Run1",11,1,"06-05-2015",18:09:32,4,4,"ShapeMatching",5,1,3,"S3","S3",1,1,992,1
"Matching_Run1",11,1,"06-05-2015",18:09:32,4,4,"ShapeMatching",6,1,2,"S8","S8",1,1,2080,1
"Matching_Run1",11,1,"06-05-2015",18:09:32,5,1,"NumberMatching",1,2,3,"N5","D1_2",0,1,858,1
"Matching_Run1",11,1,"06-05-2015",18:09:32,5,1,"NumberMatching",2,2,2,"N3","D5_2",1,2,1233,1
"Matching_Run1",11,1,"06-05-2015",18:09:32,5,1,"NumberMatching",3,1,1,"D6_2","N6",1,1,2501,1
"Matching_Run1",11,1,"06-05-2015",18:09:32,5,1,"NumberMatching",4,2,2,"N1","D4_2",1,2,1589,1
"Matching_Run1",11,1,"06-05-2015",18:09:32,5,1,"NumberMatching",5,1,1,"N5","D5_1",0,NA,0,1
"Matching_Run1",11,1,"06-05-2015",18:09:32,5,1,"NumberMatching",6,1,3,"D2_2","N2",1,1,1194,1
"Matching_Run1",11,1,"06-05-2015",18:09:32,6,2,"NumberMatching",1,1,2,"D8_2","N8",0,2,1225,1
"Matching_Run1",11,1,"06-05-2015",18:09:32,6,2,"NumberMatching",2,2,1,"D2_1","N5",1,2,1494,1
"Matching_Run1",11,1,"06-05-2015",18:09:32,6,2,"NumberMatching",3,2,3,"N9","D7_2",0,1,1114,1
"Matching_Run1",11,1,"06-05-2015",18:09:32,6,2,"NumberMatching",4,1,1,"D4_2","N4",1,1,954,1
"Matching_Run1",11,1,"06-05-2015",18:09:32,6,2,"NumberMatching",5,2,2,"D6_1","N3",0,NA,0,1
"Matching_Run1",11,1,"06-05-2015",18:09:32,6,2,"NumberMatching",6,1,3,"N9","D9_1",0,NA,0,1
"Matching_Run1",16,1,"06-28-2015",14:45:35,1,3,"NumberMatching",1,1,1,"N7","D7_1",0,NA,0,1
"Matching_Run1",16,1,"06-28-2015",14:45:35,1,3,"NumberMatching",2,2,2,"N1","D4_2",1,2,1819,1
"Matching_Run1",16,1,"06-28-2015",14:45:35,1,3,"NumberMatching",3,2,3,"D2_1","N5",0,1,1423,1
"Matching_Run1",16,1,"06-28-2015",14:45:35,1,3,"NumberMatching",4,1,1,"N1","D1_1",1,1,899,1
"Matching_Run1",16,1,"06-28-2015",14:45:35,1,3,"NumberMatching",5,2,3,"N7","D4_2",1,2,2291,1
"Matching_Run1",16,1,"06-28-2015",14:45:35,1,3,"NumberMatching",6,2,2,"D6_1","N3",1,2,1765,1
"Matching_Run1",16,1,"06-28-2015",14:45:35,2,1,"NumberMatching",1,1,3,"N3","D3_1",1,1,1433,1
"Matching_Run1",16,1,"06-28-2015",14:45:35,2,1,"NumberMatching",2,1,1,"D4_2","N4",0,2,2029,1
"Matching_Run1",16,1,"06-28-2015",14:45:35,2,1,"NumberMatching",3,2,2,"D8_1","N5",0,1,102,1
"Matching_Run1",16,1,"06-28-2015",14:45:35,2,1,"NumberMatching",4,2,1,"N3","D5_2",1,2,1806,1
"Matching_Run1",16,1,"06-28-2015",14:45:35,2,1,"NumberMatching",5,1,2,"N5","D5_1",1,1,1802,1
"Matching_Run1",16,1,"06-28-2015",14:45:35,2,1,"NumberMatching",6,2,3,"N5","D1_2",1,2,1606,1
"Matching_Run1",16,1,"06-28-2015",14:45:35,3,6,"ShapeMatching",1,2,2,"S8","S9",1,2,2245,1
"Matching_Run1",16,1,"06-28-2015",14:45:35,3,6,"ShapeMatching",2,1,3,"S3","S3",1,1,890,1
"Matching_Run1",16,1,"06-28-2015",14:45:35,3,6,"ShapeMatching",3,2,1,"S9","S1",1,2,1480,1
"Matching_Run1",16,1,"06-28-2015",14:45:35,3,6,"ShapeMatching",4,2,3,"S5","S6",1,2,1864,1
"Matching_Run1",16,1,"06-28-2015",14:45:35,3,6,"ShapeMatching",5,1,2,"S6","S6",1,1,943,1
"Matching_Run1",16,1,"06-28-2015",14:45:35,3,6,"ShapeMatching",6,2,1,"S7","S8",1,2,1631,1
"Matching_Run1",16,1,"06-28-2015",14:45:35,4,2,"NumberMatching",1,1,3,"N9","D9_1",0,NA,0,1
"Matching_Run1",16,1,"06-28-2015",14:45:35,4,2,"NumberMatching",2,1,1,"D2_2","N2",1,1,208,1
"Matching_Run1",16,1,"06-28-2015",14:45:35,4,2,"NumberMatching",3,2,2,"D4_1","N8",0,NA,0,1
"Matching_Run1",16,1,"06-28-2015",14:45:35,4,2,"NumberMatching",4,1,3,"D8_2","N8",1,1,1854,1
"Matching_Run1",16,1,"06-28-2015",14:45:35,4,2,"NumberMatching",5,1,1,"D6_2","N6",1,1,2875,1
"Matching_Run1",16,1,"06-28-2015",14:45:35,4,2,"NumberMatching",6,2,2,"N9","D7_2",0,NA,0,1
"Matching_Run1",16,1,"06-28-2015",14:45:35,5,5,"ShapeMatching",1,1,1,"S1","S1",1,1,2792,1
"Matching_Run1",16,1,"06-28-2015",14:45:35,5,5,"ShapeMatching",2,1,3,"S9","S9",1,1,1492,1
"Matching_Run1",16,1,"06-28-2015",14:45:35,5,5,"ShapeMatching",3,1,2,"S8","S8",1,1,1658,1
"Matching_Run1",16,1,"06-28-2015",14:45:35,5,5,"ShapeMatching",4,2,1,"S3","S4",1,2,1262,1
"Matching_Run1",16,1,"06-28-2015",14:45:35,5,5,"ShapeMatching",5,1,2,"S2","S2",1,1,1022,1
"Matching_Run1",16,1,"06-28-2015",14:45:35,5,5,"ShapeMatching",6,2,3,"S4","S5",1,2,1848,1
"Matching_Run1",16,1,"06-28-2015",14:45:35,6,4,"ShapeMatching",1,2,2,"S6","S7",1,2,1640,1
"Matching_Run1",16,1,"06-28-2015",14:45:35,6,4,"ShapeMatching",2,2,1,"S1","S2",0,NA,0,1
"Matching_Run1",16,1,"06-28-2015",14:45:35,6,4,"ShapeMatching",3,1,3,"S5","S5",0,NA,0,1
"Matching_Run1",16,1,"06-28-2015",14:45:35,6,4,"ShapeMatching",4,1,2,"S4","S4",1,1,1801,1
"Matching_Run1",16,1,"06-28-2015",14:45:35,6,4,"ShapeMatching",5,2,1,"S2","S3",0,NA,0,1
"Matching_Run1",16,1,"06-28-2015",14:45:35,6,4,"ShapeMatching",6,1,3,"S7","S7",1,1,1764,1
"Matching_Run1",18,1,"07-30-2015",09:18:58,1,1,"NumberMatching",1,1,3,"N1","D1_1",1,1,1634,1
"Matching_Run1",18,1,"07-30-2015",09:18:58,1,1,"NumberMatching",2,2,1,"N1","D4_2",1,2,1282,1
"Matching_Run1",18,1,"07-30-2015",09:18:58,1,1,"NumberMatching",3,1,2,"N7","D7_1",0,NA,0,1
"Matching_Run1",18,1,"07-30-2015",09:18:58,1,1,"NumberMatching",4,2,3,"N9","D7_2",0,1,21,1
"Matching_Run1",18,1,"07-30-2015",09:18:58,1,1,"NumberMatching",5,1,1,"N5","D5_1",1,1,1215,1
"Matching_Run1",18,1,"07-30-2015",09:18:58,1,1,"NumberMatching",6,2,2,"D8_1","N5",0,1,1546,1
"Matching_Run1",18,1,"07-30-2015",09:18:58,2,5,"ShapeMatching",1,1,1,"S2","S2",1,1,2605,1
"Matching_Run1",18,1,"07-30-2015",09:18:58,2,5,"ShapeMatching",2,2,2,"S7","S8",1,2,2100,1
"Matching_Run1",18,1,"07-30-2015",09:18:58,2,5,"ShapeMatching",3,1,3,"S8","S8",1,1,2054,1
"Matching_Run1",18,1,"07-30-2015",09:18:58,2,5,"ShapeMatching",4,1,1,"S7","S7",1,1,1135,1
"Matching_Run1",18,1,"07-30-2015",09:18:58,2,5,"ShapeMatching",5,1,3,"S6","S6",1,1,1873,1
"Matching_Run1",18,1,"07-30-2015",09:18:58,2,5,"ShapeMatching",6,1,2,"S5","S5",1,1,1003,1
"Matching_Run1",18,1,"07-30-2015",09:18:58,3,3,"NumberMatching",1,2,1,"D4_1","N8",1,2,1722,1
"Matching_Run1",18,1,"07-30-2015",09:18:58,3,3,"NumberMatching",2,2,2,"N3","D5_2",1,2,1401,1
"Matching_Run1",18,1,"07-30-2015",09:18:58,3,3,"NumberMatching",3,1,3,"D2_2","N2",1,1,811,1
"Matching_Run1",18,1,"07-30-2015",09:18:58,3,3,"NumberMatching",4,2,1,"N7","D4_2",1,2,1752,1
"Matching_Run1",18,1,"07-30-2015",09:18:58,3,3,"NumberMatching",5,2,3,"D2_1","N5",1,2,1392,1
"Matching_Run1",18,1,"07-30-2015",09:18:58,3,3,"NumberMatching",6,1,2,"D4_2","N4",1,1,1059,1
"Matching_Run1",18,1,"07-30-2015",09:18:58,4,6,"ShapeMatching",1,1,3,"S3","S3",1,1,873,1
"Matching_Run1",18,1,"07-30-2015",09:18:58,4,6,"ShapeMatching",2,2,1,"S1","S2",1,2,2253,1
"Matching_Run1",18,1,"07-30-2015",09:18:58,4,6,"ShapeMatching",3,2,2,"S4","S5",1,2,1643,1
"Matching_Run1",18,1,"07-30-2015",09:18:58,4,6,"ShapeMatching",4,2,3,"S5","S6",1,2,790,1
"Matching_Run1",18,1,"07-30-2015",09:18:58,4,6,"ShapeMatching",5,1,1,"S4","S4",1,1,1412,1
"Matching_Run1",18,1,"07-30-2015",09:18:58,4,6,"ShapeMatching",6,2,2,"S9","S1",1,2,533,1
"Matching_Run1",18,1,"07-30-2015",09:18:58,5,2,"NumberMatching",1,2,1,"N5","D1_2",1,2,1704,1
"Matching_Run1",18,1,"07-30-2015",09:18:58,5,2,"NumberMatching",2,1,3,"D8_2","N8",1,1,2646,1
"Matching_Run1",18,1,"07-30-2015",09:18:58,5,2,"NumberMatching",3,2,2,"D6_1","N3",1,2,1088,1
"Matching_Run1",18,1,"07-30-2015",09:18:58,5,2,"NumberMatching",4,1,3,"N3","D3_1",1,1,2933,1
"Matching_Run1",18,1,"07-30-2015",09:18:58,5,2,"NumberMatching",5,1,1,"D6_2","N6",0,NA,0,1
"Matching_Run1",18,1,"07-30-2015",09:18:58,5,2,"NumberMatching",6,1,2,"N9","D9_1",1,1,750,1
"Matching_Run1",18,1,"07-30-2015",09:18:58,6,4,"ShapeMatching",1,2,3,"S2","S3",1,2,1541,1
"Matching_Run1",18,1,"07-30-2015",09:18:58,6,4,"ShapeMatching",2,1,1,"S1","S1",1,1,822,1
"Matching_Run1",18,1,"07-30-2015",09:18:58,6,4,"ShapeMatching",3,2,2,"S8","S9",1,2,2743,1
"Matching_Run1",18,1,"07-30-2015",09:18:58,6,4,"ShapeMatching",4,2,3,"S6","S7",1,2,1372,1
"Matching_Run1",18,1,"07-30-2015",09:18:58,6,4,"ShapeMatching",5,2,1,"S3","S4",1,2,1043,1
"Matching_Run1",18,1,"07-30-2015",09:18:58,6,4,"ShapeMatching",6,1,2,"S9","S9",1,1,1177,1
"Matching_Run1",19,1,"07-26-2015",16:03:42,1,1,"NumberMatching",1,1,1,"N5","D5_1",1,1,2146,1
"Matching_Run1",19,1,"07-26-2015",16:03:42,1,1,"NumberMatching",2,1,2,"D4_2","N4",1,1,1498,1
"Matching_Run1",19,1,"07-26-2015",16:03:42,1,1,"NumberMatching",3,2,3,"D6_1","N3",0,NA,0,1
"Matching_Run1",19,1,"07-26-2015",16:03:42,1,1,"NumberMatching",4,2,2,"N7","D4_2",1,2,1067,1
"Matching_Run1",19,1,"07-26-2015",16:03:42,1,1,"NumberMatching",5,1,3,"N7","D7_1",0,NA,0,1
"Matching_Run1",19,1,"07-26-2015",16:03:42,1,1,"NumberMatching",6,1,1,"N3","D3_1",1,1,1557,1
"Matching_Run1",19,1,"07-26-2015",16:03:42,2,2,"NumberMatching",1,2,3,"N3","D5_2",0,NA,0,1
"Matching_Run1",19,1,"07-26-2015",16:03:42,2,2,"NumberMatching",2,1,2,"D6_2","N6",0,2,2847,1
"Matching_Run1",19,1,"07-26-2015",16:03:42,2,2,"NumberMatching",3,2,1,"D8_1","N5",1,2,1358,1
"Matching_Run1",19,1,"07-26-2015",16:03:42,2,2,"NumberMatching",4,2,3,"N1","D4_2",0,NA,0,1
"Matching_Run1",19,1,"07-26-2015",16:03:42,2,2,"NumberMatching",5,1,2,"D2_2","N2",0,NA,0,1
"Matching_Run1",19,1,"07-26-2015",16:03:42,2,2,"NumberMatching",6,2,1,"D2_1","N5",1,2,1715,1
"Matching_Run1",19,1,"07-26-2015",16:03:42,3,6,"ShapeMatching",1,1,3,"S2","S2",1,1,1830,1
"Matching_Run1",19,1,"07-26-2015",16:03:42,3,6,"ShapeMatching",2,1,1,"S9","S9",1,1,1418,1
"Matching_Run1",19,1,"07-26-2015",16:03:42,3,6,"ShapeMatching",3,1,2,"S4","S4",1,1,1401,1
"Matching_Run1",19,1,"07-26-2015",16:03:42,3,6,"ShapeMatching",4,2,1,"S8","S9",1,2,1185,1
"Matching_Run1",19,1,"07-26-2015",16:03:42,3,6,"ShapeMatching",5,2,3,"S7","S8",1,2,1195,1
"Matching_Run1",19,1,"07-26-2015",16:03:42,3,6,"ShapeMatching",6,1,2,"S8","S8",1,1,1546,1
"Matching_Run1",19,1,"07-26-2015",16:03:42,4,3,"NumberMatching",1,2,3,"N5","D1_2",1,2,1453,1
"Matching_Run1",19,1,"07-26-2015",16:03:42,4,3,"NumberMatching",2,1,2,"D8_2","N8",0,2,1911,1
"Matching_Run1",19,1,"07-26-2015",16:03:42,4,3,"NumberMatching",3,1,1,"N1","D1_1",1,1,914,1
"Matching_Run1",19,1,"07-26-2015",16:03:42,4,3,"NumberMatching",4,2,2,"N9","D7_2",1,2,2147,1
"Matching_Run1",19,1,"07-26-2015",16:03:42,4,3,"NumberMatching",5,2,1,"D4_1","N8",0,1,1645,1
"Matching_Run1",19,1,"07-26-2015",16:03:42,4,3,"NumberMatching",6,1,3,"N9","D9_1",0,2,2243,1
"Matching_Run1",19,1,"07-26-2015",16:03:42,5,4,"ShapeMatching",1,1,1,"S7","S7",1,1,1560,1
"Matching_Run1",19,1,"07-26-2015",16:03:42,5,4,"ShapeMatching",2,1,2,"S6","S6",1,1,983,1
"Matching_Run1",19,1,"07-26-2015",16:03:42,5,4,"ShapeMatching",3,2,3,"S6","S7",1,2,1026,1
"Matching_Run1",19,1,"07-26-2015",16:03:42,5,4,"ShapeMatching",4,1,1,"S3","S3",0,NA,0,1
"Matching_Run1",19,1,"07-26-2015",16:03:42,5,4,"ShapeMatching",5,1,2,"S5","S5",0,NA,0,1
"Matching_Run1",19,1,"07-26-2015",16:03:42,5,4,"ShapeMatching",6,2,3,"S3","S4",1,2,1014,1
"Matching_Run1",19,1,"07-26-2015",16:03:42,6,5,"ShapeMatching",1,2,2,"S2","S3",1,2,2083,1
"Matching_Run1",19,1,"07-26-2015",16:03:42,6,5,"ShapeMatching",2,2,1,"S5","S6",1,2,1214,1
"Matching_Run1",19,1,"07-26-2015",16:03:42,6,5,"ShapeMatching",3,2,3,"S4","S5",1,2,2612,1
"Matching_Run1",19,1,"07-26-2015",16:03:42,6,5,"ShapeMatching",4,1,1,"S1","S1",1,1,620,1
"Matching_Run1",19,1,"07-26-2015",16:03:42,6,5,"ShapeMatching",5,2,3,"S1","S2",0,1,1594,1
"Matching_Run1",19,1,"07-26-2015",16:03:42,6,5,"ShapeMatching",6,2,2,"S9","S1",1,2,1985,1
"Matching_Run1",19,2,"07-26-2015",16:32:19,1,4,"ShapeMatching",1,1,1,"S3","S3",1,1,2184,1
"Matching_Run1",19,2,"07-26-2015",16:32:19,1,4,"ShapeMatching",2,1,3,"S8","S8",0,2,1123,1
"Matching_Run1",19,2,"07-26-2015",16:32:19,1,4,"ShapeMatching",3,2,2,"S8","S9",1,2,1522,1
"Matching_Run1",19,2,"07-26-2015",16:32:19,1,4,"ShapeMatching",4,1,1,"S9","S9",0,2,806,1
"Matching_Run1",19,2,"07-26-2015",16:32:19,1,4,"ShapeMatching",5,2,3,"S2","S3",1,2,1331,1
"Matching_Run1",19,2,"07-26-2015",16:32:19,1,4,"ShapeMatching",6,2,2,"S9","S1",1,2,965,1
"Matching_Run1",19,2,"07-26-2015",16:32:19,2,5,"ShapeMatching",1,1,1,"S6","S6",0,NA,0,1
"Matching_Run1",19,2,"07-26-2015",16:32:19,2,5,"ShapeMatching",2,1,2,"S4","S4",1,1,1708,1
"Matching_Run1",19,2,"07-26-2015",16:32:19,2,5,"ShapeMatching",3,2,3,"S3","S4",1,2,1377,1
"Matching_Run1",19,2,"07-26-2015",16:32:19,2,5,"ShapeMatching",4,2,2,"S6","S7",0,NA,0,1
"Matching_Run1",19,2,"07-26-2015",16:32:19,2,5,"ShapeMatching",5,2,3,"S4","S5",0,NA,0,1
"Matching_Run1",19,2,"07-26-2015",16:32:19,2,5,"ShapeMatching",6,1,1,"S7","S7",1,1,1991,1
"Matching_Run1",19,2,"07-26-2015",16:32:19,3,3,"NumberMatching",1,1,3,"N5","D5_1",1,1,3217,1
"Matching_Run1",19,2,"07-26-2015",16:32:19,3,3,"NumberMatching",2,1,2,"N9","D9_1",1,1,2077,1
"Matching_Run1",19,2,"07-26-2015",16:32:19,3,3,"NumberMatching",3,1,1,"D4_2","N4",1,1,2798,1
"Matching_Run1",19,2,"07-26-2015",16:32:19,3,3,"NumberMatching",4,1,2,"N1","D1_1",0,2,1402,1
"Matching_Run1",19,2,"07-26-2015",16:32:19,3,3,"NumberMatching",5,1,1,"D2_2","N2",1,1,1128,1
"Matching_Run1",19,2,"07-26-2015",16:32:19,3,3,"NumberMatching",6,2,3,"D2_1","N5",0,1,1887,1
"Matching_Run1",19,2,"07-26-2015",16:32:19,4,6,"ShapeMatching",1,2,2,"S5","S6",1,2,1385,1
"Matching_Run1",19,2,"07-26-2015",16:32:19,4,6,"ShapeMatching",2,2,1,"S1","S2",0,NA,0,1
"Matching_Run1",19,2,"07-26-2015",16:32:19,4,6,"ShapeMatching",3,2,3,"S7","S8",0,1,1938,1
"Matching_Run1",19,2,"07-26-2015",16:32:19,4,6,"ShapeMatching",4,1,2,"S1","S1",1,1,1004,1
"Matching_Run1",19,2,"07-26-2015",16:32:19,4,6,"ShapeMatching",5,1,1,"S5","S5",1,1,1516,1
"Matching_Run1",19,2,"07-26-2015",16:32:19,4,6,"ShapeMatching",6,1,3,"S2","S2",1,1,1267,1
"Matching_Run1",19,2,"07-26-2015",16:32:19,5,2,"NumberMatching",1,2,1,"N9","D7_2",0,NA,0,1
"Matching_Run1",19,2,"07-26-2015",16:32:19,5,2,"NumberMatching",2,2,2,"D4_1","N8",1,2,1837,1
"Matching_Run1",19,2,"07-26-2015",16:32:19,5,2,"NumberMatching",3,1,3,"D6_2","N6",1,1,3849,1
"Matching_Run1",19,2,"07-26-2015",16:32:19,5,2,"NumberMatching",4,2,1,"N1","D4_2",1,2,2863,1
"Matching_Run1",19,2,"07-26-2015",16:32:19,5,2,"NumberMatching",5,2,2,"N5","D1_2",0,1,1202,1
"Matching_Run1",19,2,"07-26-2015",16:32:19,5,2,"NumberMatching",6,1,3,"D8_2","N8",0,NA,0,1
"Matching_Run1",19,2,"07-26-2015",16:32:19,6,1,"NumberMatching",1,2,2,"N3","D5_2",0,NA,0,1
"Matching_Run1",19,2,"07-26-2015",16:32:19,6,1,"NumberMatching",2,2,1,"D6_1","N3",1,2,1918,1
"Matching_Run1",19,2,"07-26-2015",16:32:19,6,1,"NumberMatching",3,2,3,"D8_1","N5",1,2,1740,1
"Matching_Run1",19,2,"07-26-2015",16:32:19,6,1,"NumberMatching",4,1,2,"N3","D3_1",1,1,1708,1
"Matching_Run1",19,2,"07-26-2015",16:32:19,6,1,"NumberMatching",5,2,1,"N7","D4_2",0,NA,0,1
"Matching_Run1",19,2,"07-26-2015",16:32:19,6,1,"NumberMatching",6,1,3,"N7","D7_1",0,NA,0,1
"Matching_Run1",20,1,"06-28-2015",12:02:03,1,6,"ShapeMatching",1,2,1,"S7","S8",1,2,1968,1
"Matching_Run1",20,1,"06-28-2015",12:02:03,1,6,"ShapeMatching",2,1,2,"S1","S1",1,1,1407,1
"Matching_Run1",20,1,"06-28-2015",12:02:03,1,6,"ShapeMatching",3,2,3,"S5","S6",1,2,1379,1
"Matching_Run1",20,1,"06-28-2015",12:02:03,1,6,"ShapeMatching",4,2,2,"S1","S2",1,2,1030,1
"Matching_Run1",20,1,"06-28-2015",12:02:03,1,6,"ShapeMatching",5,2,1,"S8","S9",1,2,1241,1
"Matching_Run1",20,1,"06-28-2015",12:02:03,1,6,"ShapeMatching",6,2,3,"S6","S7",1,2,1534,1
"Matching_Run1",20,1,"06-28-2015",12:02:03,2,5,"ShapeMatching",1,1,1,"S2","S2",1,1,2407,1
"Matching_Run1",20,1,"06-28-2015",12:02:03,2,5,"ShapeMatching",2,1,3,"S3","S3",1,1,1336,1
"Matching_Run1",20,1,"06-28-2015",12:02:03,2,5,"ShapeMatching",3,1,2,"S5","S5",1,1,2158,1
"Matching_Run1",20,1,"06-28-2015",12:02:03,2,5,"ShapeMatching",4,1,3,"S7","S7",1,1,1252,1
"Matching_Run1",20,1,"06-28-2015",12:02:03,2,5,"ShapeMatching",5,1,1,"S8","S8",1,1,1033,1
"Matching_Run1",20,1,"06-28-2015",12:02:03,2,5,"ShapeMatching",6,2,2,"S2","S3",1,2,1660,1
"Matching_Run1",20,1,"06-28-2015",12:02:03,3,1,"NumberMatching",1,2,1,"D6_1","N3",1,2,1305,1
"Matching_Run1",20,1,"06-28-2015",12:02:03,3,1,"NumberMatching",2,2,3,"D2_1","N5",1,2,1749,1
"Matching_Run1",20,1,"06-28-2015",12:02:03,3,1,"NumberMatching",3,1,2,"D8_2","N8",0,2,2329,1
"Matching_Run1",20,1,"06-28-2015",12:02:03,3,1,"NumberMatching",4,1,1,"N3","D3_1",1,1,857,1
"Matching_Run1",20,1,"06-28-2015",12:02:03,3,1,"NumberMatching",5,1,3,"N7","D7_1",1,1,1571,1
"Matching_Run1",20,1,"06-28-2015",12:02:03,3,1,"NumberMatching",6,1,2,"D2_2","N2",1,1,909,1
"Matching_Run1",20,1,"06-28-2015",12:02:03,4,4,"ShapeMatching",1,2,1,"S3","S4",1,2,2005,1
"Matching_Run1",20,1,"06-28-2015",12:02:03,4,4,"ShapeMatching",2,1,3,"S6","S6",1,1,1104,1
"Matching_Run1",20,1,"06-28-2015",12:02:03,4,4,"ShapeMatching",3,2,2,"S9","S1",1,2,1351,1
"Matching_Run1",20,1,"06-28-2015",12:02:03,4,4,"ShapeMatching",4,2,3,"S4","S5",1,2,1279,1
"Matching_Run1",20,1,"06-28-2015",12:02:03,4,4,"ShapeMatching",5,1,1,"S9","S9",1,1,1627,1
"Matching_Run1",20,1,"06-28-2015",12:02:03,4,4,"ShapeMatching",6,1,2,"S4","S4",1,1,1344,1
"Matching_Run1",20,1,"06-28-2015",12:02:03,5,3,"NumberMatching",1,2,1,"N1","D4_2",0,NA,0,1
"Matching_Run1",20,1,"06-28-2015",12:02:03,5,3,"NumberMatching",2,1,2,"D6_2","N6",0,2,53,1
"Matching_Run1",20,1,"06-28-2015",12:02:03,5,3,"NumberMatching",3,2,3,"D8_1","N5",1,2,1947,1
"Matching_Run1",20,1,"06-28-2015",12:02:03,5,3,"NumberMatching",4,1,1,"N9","D9_1",1,1,2270,1
"Matching_Run1",20,1,"06-28-2015",12:02:03,5,3,"NumberMatching",5,2,2,"N7","D4_2",1,2,1354,1
"Matching_Run1",20,1,"06-28-2015",12:02:03,5,3,"NumberMatching",6,1,3,"N1","D1_1",1,1,731,1
"Matching_Run1",20,1,"06-28-2015",12:02:03,6,2,"NumberMatching",1,1,1,"N5","D5_1",1,1,1273,1
"Matching_Run1",20,1,"06-28-2015",12:02:03,6,2,"NumberMatching",2,2,2,"D4_1","N8",1,2,990,1
"Matching_Run1",20,1,"06-28-2015",12:02:03,6,2,"NumberMatching",3,1,3,"D4_2","N4",1,1,1145,1
"Matching_Run1",20,1,"06-28-2015",12:02:03,6,2,"NumberMatching",4,2,2,"N3","D5_2",1,2,1214,1
"Matching_Run1",20,1,"06-28-2015",12:02:03,6,2,"NumberMatching",5,2,3,"N9","D7_2",1,2,2206,1
"Matching_Run1",20,1,"06-28-2015",12:02:03,6,2,"NumberMatching",6,2,1,"N5","D1_2",1,2,893,1
"Matching_Run1",20,2,"06-28-2015",12:30:28,1,5,"ShapeMatching",1,1,1,"S7","S7",1,1,925,1
"Matching_Run1",20,2,"06-28-2015",12:30:28,1,5,"ShapeMatching",2,1,2,"S3","S3",1,1,1587,1
"Matching_Run1",20,2,"06-28-2015",12:30:28,1,5,"ShapeMatching",3,2,3,"S5","S6",1,2,1208,1
"Matching_Run1",20,2,"06-28-2015",12:30:28,1,5,"ShapeMatching",4,2,2,"S6","S7",1,2,1400,1
"Matching_Run1",20,2,"06-28-2015",12:30:28,1,5,"ShapeMatching",5,2,3,"S2","S3",1,2,1391,1
"Matching_Run1",20,2,"06-28-2015",12:30:28,1,5,"ShapeMatching",6,1,1,"S6","S6",1,1,835,1
"Matching_Run1",20,2,"06-28-2015",12:30:28,2,6,"ShapeMatching",1,1,3,"S2","S2",1,1,1289,1
"Matching_Run1",20,2,"06-28-2015",12:30:28,2,6,"ShapeMatching",2,2,2,"S9","S1",1,2,1444,1
"Matching_Run1",20,2,"06-28-2015",12:30:28,2,6,"ShapeMatching",3,2,1,"S3","S4",1,2,900,1
"Matching_Run1",20,2,"06-28-2015",12:30:28,2,6,"ShapeMatching",4,1,2,"S8","S8",1,1,1315,1
"Matching_Run1",20,2,"06-28-2015",12:30:28,2,6,"ShapeMatching",5,2,3,"S4","S5",1,2,1549,1
"Matching_Run1",20,2,"06-28-2015",12:30:28,2,6,"ShapeMatching",6,1,1,"S4","S4",1,1,851,1
"Matching_Run1",20,2,"06-28-2015",12:30:28,3,1,"NumberMatching",1,1,2,"D4_2","N4",1,1,1602,1
"Matching_Run1",20,2,"06-28-2015",12:30:28,3,1,"NumberMatching",2,1,1,"D8_2","N8",1,1,1395,1
"Matching_Run1",20,2,"06-28-2015",12:30:28,3,1,"NumberMatching",3,1,3,"D6_2","N6",1,1,1498,1
"Matching_Run1",20,2,"06-28-2015",12:30:28,3,1,"NumberMatching",4,2,2,"N7","D4_2",1,2,1066,1
"Matching_Run1",20,2,"06-28-2015",12:30:28,3,1,"NumberMatching",5,2,3,"D2_1","N5",1,2,877,1
"Matching_Run1",20,2,"06-28-2015",12:30:28,3,1,"NumberMatching",6,2,1,"N5","D1_2",1,2,1009,1
"Matching_Run1",20,2,"06-28-2015",12:30:28,4,4,"ShapeMatching",1,2,3,"S8","S9",1,2,2090,1
"Matching_Run1",20,2,"06-28-2015",12:30:28,4,4,"ShapeMatching",2,2,2,"S7","S8",1,2,878,1
"Matching_Run1",20,2,"06-28-2015",12:30:28,4,4,"ShapeMatching",3,1,1,"S5","S5",1,1,885,1
"Matching_Run1",20,2,"06-28-2015",12:30:28,4,4,"ShapeMatching",4,1,2,"S1","S1",0,2,1212,1
"Matching_Run1",20,2,"06-28-2015",12:30:28,4,4,"ShapeMatching",5,2,3,"S1","S2",1,2,1207,1
"Matching_Run1",20,2,"06-28-2015",12:30:28,4,4,"ShapeMatching",6,1,1,"S9","S9",1,1,776,1
"Matching_Run1",20,2,"06-28-2015",12:30:28,5,2,"NumberMatching",1,2,3,"D6_1","N3",1,2,956,1
"Matching_Run1",20,2,"06-28-2015",12:30:28,5,2,"NumberMatching",2,2,1,"N1","D4_2",1,2,1186,1
"Matching_Run1",20,2,"06-28-2015",12:30:28,5,2,"NumberMatching",3,1,2,"N1","D1_1",1,1,937,1
"Matching_Run1",20,2,"06-28-2015",12:30:28,5,2,"NumberMatching",4,1,1,"D2_2","N2",1,1,1297,1
"Matching_Run1",20,2,"06-28-2015",12:30:28,5,2,"NumberMatching",5,2,3,"D4_1","N8",1,2,1316,1
"Matching_Run1",20,2,"06-28-2015",12:30:28,5,2,"NumberMatching",6,2,2,"N9","D7_2",1,2,2314,1
"Matching_Run1",20,2,"06-28-2015",12:30:28,6,3,"NumberMatching",1,2,1,"D8_1","N5",1,2,1087,1
"Matching_Run1",20,2,"06-28-2015",12:30:28,6,3,"NumberMatching",2,1,3,"N9","D9_1",1,1,1858,1
"Matching_Run1",20,2,"06-28-2015",12:30:28,6,3,"NumberMatching",3,2,2,"N3","D5_2",1,2,1053,1
"Matching_Run1",20,2,"06-28-2015",12:30:28,6,3,"NumberMatching",4,1,1,"N3","D3_1",1,1,768,1
"Matching_Run1",20,2,"06-28-2015",12:30:28,6,3,"NumberMatching",5,1,2,"N5","D5_1",1,1,1272,1
"Matching_Run1",20,2,"06-28-2015",12:30:28,6,3,"NumberMatching",6,1,3,"N7","D7_1",1,1,1625,1
"Matching_Run1",21,1,"07-14-2015",14:55:12,1,4,"ShapeMatching",1,2,3,"S4","S5",1,2,934,1
"Matching_Run1",21,1,"07-14-2015",14:55:12,1,4,"ShapeMatching",2,1,2,"S3","S3",1,1,1072,1
"Matching_Run1",21,1,"07-14-2015",14:55:12,1,4,"ShapeMatching",3,2,1,"S1","S2",0,1,1595,1
"Matching_Run1",21,1,"07-14-2015",14:55:12,1,4,"ShapeMatching",4,2,3,"S7","S8",1,2,1009,1
"Matching_Run1",21,1,"07-14-2015",14:55:12,1,4,"ShapeMatching",5,1,1,"S2","S2",1,1,878,1
"Matching_Run1",21,1,"07-14-2015",14:55:12,1,4,"ShapeMatching",6,1,2,"S5","S5",1,1,783,1
"Matching_Run1",21,1,"07-14-2015",14:55:12,2,1,"NumberMatching",1,1,1,"N5","D5_1",1,1,1059,1
"Matching_Run1",21,1,"07-14-2015",14:55:12,2,1,"NumberMatching",2,2,2,"D4_1","N8",1,2,1187,1
"Matching_Run1",21,1,"07-14-2015",14:55:12,2,1,"NumberMatching",3,2,3,"D8_1","N5",0,1,1348,1
"Matching_Run1",21,1,"07-14-2015",14:55:12,2,1,"NumberMatching",4,2,2,"N9","D7_2",0,1,2419,1
"Matching_Run1",21,1,"07-14-2015",14:55:12,2,1,"NumberMatching",5,2,1,"N5","D1_2",1,2,1008,1
"Matching_Run1",21,1,"07-14-2015",14:55:12,2,1,"NumberMatching",6,2,3,"D2_1","N5",1,2,1580,1
"Matching_Run1",21,1,"07-14-2015",14:55:12,3,3,"NumberMatching",1,2,2,"N1","D4_2",1,2,1231,1
"Matching_Run1",21,1,"07-14-2015",14:55:12,3,3,"NumberMatching",2,1,3,"D2_2","N2",1,1,1248,1
"Matching_Run1",21,1,"07-14-2015",14:55:12,3,3,"NumberMatching",3,1,1,"N1","D1_1",1,1,1492,1
"Matching_Run1",21,1,"07-14-2015",14:55:12,3,3,"NumberMatching",4,1,2,"D4_2","N4",0,2,849,1
"Matching_Run1",21,1,"07-14-2015",14:55:12,3,3,"NumberMatching",5,1,1,"N9","D9_1",1,1,1434,1
"Matching_Run1",21,1,"07-14-2015",14:55:12,3,3,"NumberMatching",6,1,3,"N3","D3_1",1,1,1150,1
"Matching_Run1",21,1,"07-14-2015",14:55:12,4,5,"ShapeMatching",1,2,1,"S2","S3",1,2,1062,1
"Matching_Run1",21,1,"07-14-2015",14:55:12,4,5,"ShapeMatching",2,2,3,"S9","S1",1,2,1092,1
"Matching_Run1",21,1,"07-14-2015",14:55:12,4,5,"ShapeMatching",3,1,2,"S8","S8",1,1,1608,1
"Matching_Run1",21,1,"07-14-2015",14:55:12,4,5,"ShapeMatching",4,2,1,"S5","S6",1,2,1128,1
"Matching_Run1",21,1,"07-14-2015",14:55:12,4,5,"ShapeMatching",5,1,2,"S9","S9",1,1,1190,1
"Matching_Run1",21,1,"07-14-2015",14:55:12,4,5,"ShapeMatching",6,1,3,"S4","S4",1,1,873,1
"Matching_Run1",21,1,"07-14-2015",14:55:12,5,6,"ShapeMatching",1,2,2,"S6","S7",1,2,1583,1
"Matching_Run1",21,1,"07-14-2015",14:55:12,5,6,"ShapeMatching",2,1,1,"S7","S7",1,1,2001,1
"Matching_Run1",21,1,"07-14-2015",14:55:12,5,6,"ShapeMatching",3,1,3,"S6","S6",1,1,1216,1
"Matching_Run1",21,1,"07-14-2015",14:55:12,5,6,"ShapeMatching",4,2,2,"S3","S4",1,2,1226,1
"Matching_Run1",21,1,"07-14-2015",14:55:12,5,6,"ShapeMatching",5,2,1,"S8","S9",1,2,1068,1
"Matching_Run1",21,1,"07-14-2015",14:55:12,5,6,"ShapeMatching",6,1,3,"S1","S1",1,1,795,1
"Matching_Run1",21,1,"07-14-2015",14:55:12,6,2,"NumberMatching",1,1,1,"D6_2","N6",1,1,1311,1
"Matching_Run1",21,1,"07-14-2015",14:55:12,6,2,"NumberMatching",2,2,3,"D6_1","N3",1,2,913,1
"Matching_Run1",21,1,"07-14-2015",14:55:12,6,2,"NumberMatching",3,2,2,"N3","D5_2",1,2,1433,1
"Matching_Run1",21,1,"07-14-2015",14:55:12,6,2,"NumberMatching",4,1,3,"N7","D7_1",1,1,1241,1
"Matching_Run1",21,1,"07-14-2015",14:55:12,6,2,"NumberMatching",5,2,2,"N7","D4_2",1,2,1131,1
"Matching_Run1",21,1,"07-14-2015",14:55:12,6,2,"NumberMatching",6,1,1,"D8_2","N8",1,1,1204,1
"Matching_Run1",22,1,"07-07-2015",17:26:40,1,6,"ShapeMatching",1,2,1,"S3","S4",1,2,2037,1
"Matching_Run1",22,1,"07-07-2015",17:26:40,1,6,"ShapeMatching",2,1,3,"S3","S3",1,1,1000,1
"Matching_Run1",22,1,"07-07-2015",17:26:40,1,6,"ShapeMatching",3,2,2,"S4","S5",1,2,1490,1
"Matching_Run1",22,1,"07-07-2015",17:26:40,1,6,"ShapeMatching",4,1,3,"S8","S8",1,1,891,1
"Matching_Run1",22,1,"07-07-2015",17:26:40,1,6,"ShapeMatching",5,1,1,"S7","S7",1,1,1116,1
"Matching_Run1",22,1,"07-07-2015",17:26:40,1,6,"ShapeMatching",6,2,2,"S9","S1",1,2,1565,1
"Matching_Run1",22,1,"07-07-2015",17:26:40,2,2,"NumberMatching",1,1,1,"D2_2","N2",1,1,1308,1
"Matching_Run1",22,1,"07-07-2015",17:26:40,2,2,"NumberMatching",2,2,2,"N9","D7_2",1,2,3089,1
"Matching_Run1",22,1,"07-07-2015",17:26:40,2,2,"NumberMatching",3,1,3,"D8_2","N8",0,2,3027,1
"Matching_Run1",22,1,"07-07-2015",17:26:40,2,2,"NumberMatching",4,2,2,"N5","D1_2",1,2,1577,1
"Matching_Run1",22,1,"07-07-2015",17:26:40,2,2,"NumberMatching",5,2,3,"D4_1","N8",1,2,1607,1
"Matching_Run1",22,1,"07-07-2015",17:26:40,2,2,"NumberMatching",6,2,1,"D6_1","N3",1,2,1522,1
"Matching_Run1",22,1,"07-07-2015",17:26:40,3,4,"ShapeMatching",1,1,2,"S5","S5",1,1,1379,1
"Matching_Run1",22,1,"07-07-2015",17:26:40,3,4,"ShapeMatching",2,1,3,"S9","S9",1,1,1369,1
"Matching_Run1",22,1,"07-07-2015",17:26:40,3,4,"ShapeMatching",3,1,1,"S2","S2",1,1,1031,1
"Matching_Run1",22,1,"07-07-2015",17:26:40,3,4,"ShapeMatching",4,2,3,"S1","S2",1,2,1855,1
"Matching_Run1",22,1,"07-07-2015",17:26:40,3,4,"ShapeMatching",5,1,1,"S1","S1",1,1,1157,1
"Matching_Run1",22,1,"07-07-2015",17:26:40,3,4,"ShapeMatching",6,1,2,"S4","S4",1,1,947,1
"Matching_Run1",22,1,"07-07-2015",17:26:40,4,5,"ShapeMatching",1,2,3,"S5","S6",1,2,1549,1
"Matching_Run1",22,1,"07-07-2015",17:26:40,4,5,"ShapeMatching",2,2,2,"S6","S7",1,2,1447,1
"Matching_Run1",22,1,"07-07-2015",17:26:40,4,5,"ShapeMatching",3,2,1,"S7","S8",1,2,1109,1
"Matching_Run1",22,1,"07-07-2015",17:26:40,4,5,"ShapeMatching",4,2,2,"S8","S9",1,2,1838,1
"Matching_Run1",22,1,"07-07-2015",17:26:40,4,5,"ShapeMatching",5,2,3,"S2","S3",1,2,1579,1
"Matching_Run1",22,1,"07-07-2015",17:26:40,4,5,"ShapeMatching",6,1,1,"S6","S6",1,1,2273,1
"Matching_Run1",22,1,"07-07-2015",17:26:40,5,1,"NumberMatching",1,2,2,"N1","D4_2",1,2,1939,1
"Matching_Run1",22,1,"07-07-2015",17:26:40,5,1,"NumberMatching",2,1,3,"N5","D5_1",1,1,2460,1
"Matching_Run1",22,1,"07-07-2015",17:26:40,5,1,"NumberMatching",3,1,1,"N7","D7_1",0,NA,0,1
"Matching_Run1",22,1,"07-07-2015",17:26:40,5,1,"NumberMatching",4,2,3,"D2_1","N5",0,1,145,1
"Matching_Run1",22,1,"07-07-2015",17:26:40,5,1,"NumberMatching",5,1,1,"D4_2","N4",1,1,1389,1
"Matching_Run1",22,1,"07-07-2015",17:26:40,5,1,"NumberMatching",6,1,2,"N1","D1_1",1,1,1185,1
"Matching_Run1",22,1,"07-07-2015",17:26:40,6,3,"NumberMatching",1,1,1,"D6_2","N6",1,1,2391,1
"Matching_Run1",22,1,"07-07-2015",17:26:40,6,3,"NumberMatching",2,2,3,"N7","D4_2",1,2,1616,1
"Matching_Run1",22,1,"07-07-2015",17:26:40,6,3,"NumberMatching",3,2,2,"N3","D5_2",1,2,1360,1
"Matching_Run1",22,1,"07-07-2015",17:26:40,6,3,"NumberMatching",4,1,1,"N9","D9_1",0,NA,0,1
"Matching_Run1",22,1,"07-07-2015",17:26:40,6,3,"NumberMatching",5,1,2,"N3","D3_1",1,1,1905,1
"Matching_Run1",22,1,"07-07-2015",17:26:40,6,3,"NumberMatching",6,2,3,"D8_1","N5",1,2,1371,1
"Matching_Run1",23,1,"07-15-2015",13:06:04,1,3,"NumberMatching",1,2,1,"N1","D4_2",1,2,1936,1
"Matching_Run1",23,1,"07-15-2015",13:06:04,1,3,"NumberMatching",2,1,2,"N7","D7_1",0,NA,0,1
"Matching_Run1",23,1,"07-15-2015",13:06:04,1,3,"NumberMatching",3,2,3,"N9","D7_2",0,1,1166,1
"Matching_Run1",23,1,"07-15-2015",13:06:04,1,3,"NumberMatching",4,2,2,"D4_1","N8",1,2,1425,1
"Matching_Run1",23,1,"07-15-2015",13:06:04,1,3,"NumberMatching",5,2,3,"D6_1","N3",1,2,1433,1
"Matching_Run1",23,1,"07-15-2015",13:06:04,1,3,"NumberMatching",6,2,1,"N5","D1_2",1,2,1412,1
"Matching_Run1",23,1,"07-15-2015",13:06:04,2,2,"NumberMatching",1,2,3,"N3","D5_2",1,2,1071,1
"Matching_Run1",23,1,"07-15-2015",13:06:04,2,2,"NumberMatching",2,1,2,"D2_2","N2",1,1,1378,1
"Matching_Run1",23,1,"07-15-2015",13:06:04,2,2,"NumberMatching",3,1,1,"D8_2","N8",1,1,2772,1
"Matching_Run1",23,1,"07-15-2015",13:06:04,2,2,"NumberMatching",4,1,2,"N9","D9_1",1,1,1145,1
"Matching_Run1",23,1,"07-15-2015",13:06:04,2,2,"NumberMatching",5,1,1,"D6_2","N6",0,NA,0,1
"Matching_Run1",23,1,"07-15-2015",13:06:04,2,2,"NumberMatching",6,1,3,"N1","D1_1",1,1,1154,1
"Matching_Run1",23,1,"07-15-2015",13:06:04,3,5,"ShapeMatching",1,2,1,"S2","S3",1,2,1347,1
"Matching_Run1",23,1,"07-15-2015",13:06:04,3,5,"ShapeMatching",2,2,2,"S4","S5",1,2,900,1
"Matching_Run1",23,1,"07-15-2015",13:06:04,3,5,"ShapeMatching",3,1,3,"S9","S9",1,1,871,1
"Matching_Run1",23,1,"07-15-2015",13:06:04,3,5,"ShapeMatching",4,1,1,"S7","S7",1,1,1126,1
"Matching_Run1",23,1,"07-15-2015",13:06:04,3,5,"ShapeMatching",5,2,2,"S7","S8",0,1,1641,1
"Matching_Run1",23,1,"07-15-2015",13:06:04,3,5,"ShapeMatching",6,2,3,"S8","S9",0,1,1291,1
"Matching_Run1",23,1,"07-15-2015",13:06:04,4,6,"ShapeMatching",1,1,2,"S1","S1",1,1,797,1
"Matching_Run1",23,1,"07-15-2015",13:06:04,4,6,"ShapeMatching",2,1,3,"S5","S5",1,1,1218,1
"Matching_Run1",23,1,"07-15-2015",13:06:04,4,6,"ShapeMatching",3,2,1,"S9","S1",1,2,2085,1
"Matching_Run1",23,1,"07-15-2015",13:06:04,4,6,"ShapeMatching",4,1,2,"S4","S4",1,1,1421,1
"Matching_Run1",23,1,"07-15-2015",13:06:04,4,6,"ShapeMatching",5,1,3,"S6","S6",1,1,898,1
"Matching_Run1",23,1,"07-15-2015",13:06:04,4,6,"ShapeMatching",6,1,1,"S3","S3",1,1,1297,1
"Matching_Run1",23,1,"07-15-2015",13:06:04,5,4,"ShapeMatching",1,2,3,"S3","S4",1,2,1101,1
"Matching_Run1",23,1,"07-15-2015",13:06:04,5,4,"ShapeMatching",2,1,2,"S2","S2",1,1,1974,1
"Matching_Run1",23,1,"07-15-2015",13:06:04,5,4,"ShapeMatching",3,2,1,"S6","S7",1,2,2037,1
"Matching_Run1",23,1,"07-15-2015",13:06:04,5,4,"ShapeMatching",4,2,2,"S1","S2",1,2,2329,1
"Matching_Run1",23,1,"07-15-2015",13:06:04,5,4,"ShapeMatching",5,2,3,"S5","S6",0,NA,0,1
"Matching_Run1",23,1,"07-15-2015",13:06:04,5,4,"ShapeMatching",6,1,1,"S8","S8",1,1,1018,1
"Matching_Run1",23,1,"07-15-2015",13:06:04,6,1,"NumberMatching",1,1,2,"N5","D5_1",1,1,1959,1
"Matching_Run1",23,1,"07-15-2015",13:06:04,6,1,"NumberMatching",2,2,3,"D2_1","N5",1,2,1062,1
"Matching_Run1",23,1,"07-15-2015",13:06:04,6,1,"NumberMatching",3,1,1,"D4_2","N4",1,1,1199,1
"Matching_Run1",23,1,"07-15-2015",13:06:04,6,1,"NumberMatching",4,2,3,"N7","D4_2",1,2,1241,1
"Matching_Run1",23,1,"07-15-2015",13:06:04,6,1,"NumberMatching",5,1,1,"N3","D3_1",1,1,927,1
"Matching_Run1",23,1,"07-15-2015",13:06:04,6,1,"NumberMatching",6,2,2,"D8_1","N5",1,2,1510,1
"Matching_Run1",24,1,"07-29-2015",18:46:15,1,3,"NumberMatching",1,1,1,"N7","D7_1",1,1,2597,1
"Matching_Run1",24,1,"07-29-2015",18:46:15,1,3,"NumberMatching",2,1,2,"N3","D3_1",0,2,1034,1
"Matching_Run1",24,1,"07-29-2015",18:46:15,1,3,"NumberMatching",3,1,3,"D4_2","N4",1,1,780,1
"Matching_Run1",24,1,"07-29-2015",18:46:15,1,3,"NumberMatching",4,1,1,"D6_2","N6",0,NA,0,1
"Matching_Run1",24,1,"07-29-2015",18:46:15,1,3,"NumberMatching",5,2,3,"N7","D4_2",1,2,2187,1
"Matching_Run1",24,1,"07-29-2015",18:46:15,1,3,"NumberMatching",6,1,2,"N9","D9_1",1,1,1456,1
"Matching_Run1",24,1,"07-29-2015",18:46:15,2,6,"ShapeMatching",1,1,1,"S2","S2",1,1,2002,1
"Matching_Run1",24,1,"07-29-2015",18:46:15,2,6,"ShapeMatching",2,1,3,"S7","S7",0,2,803,1
"Matching_Run1",24,1,"07-29-2015",18:46:15,2,6,"ShapeMatching",3,2,2,"S5","S6",1,2,1871,1
"Matching_Run1",24,1,"07-29-2015",18:46:15,2,6,"ShapeMatching",4,2,1,"S6","S7",1,2,24,1
"Matching_Run1",24,1,"07-29-2015",18:46:15,2,6,"ShapeMatching",5,1,2,"S3","S3",1,1,1434,1
"Matching_Run1",24,1,"07-29-2015",18:46:15,2,6,"ShapeMatching",6,1,3,"S6","S6",1,1,1274,1
"Matching_Run1",24,1,"07-29-2015",18:46:15,3,5,"ShapeMatching",1,2,1,"S2","S3",0,NA,0,1
"Matching_Run1",24,1,"07-29-2015",18:46:15,3,5,"ShapeMatching",2,1,3,"S1","S1",0,2,557,1
"Matching_Run1",24,1,"07-29-2015",18:46:15,3,5,"ShapeMatching",3,2,2,"S1","S2",0,1,1612,1
"Matching_Run1",24,1,"07-29-2015",18:46:15,3,5,"ShapeMatching",4,2,1,"S4","S5",1,2,2605,1
"Matching_Run1",24,1,"07-29-2015",18:46:15,3,5,"ShapeMatching",5,1,3,"S4","S4",1,1,1071,1
"Matching_Run1",24,1,"07-29-2015",18:46:15,3,5,"ShapeMatching",6,2,2,"S8","S9",1,2,1028,1
"Matching_Run1",24,1,"07-29-2015",18:46:15,4,1,"NumberMatching",1,1,1,"D8_2","N8",0,2,2209,1
"Matching_Run1",24,1,"07-29-2015",18:46:15,4,1,"NumberMatching",2,2,3,"D2_1","N5",1,2,1688,1
"Matching_Run1",24,1,"07-29-2015",18:46:15,4,1,"NumberMatching",3,2,2,"D6_1","N3",0,1,1809,1
"Matching_Run1",24,1,"07-29-2015",18:46:15,4,1,"NumberMatching",4,2,3,"D8_1","N5",1,2,1897,1
"Matching_Run1",24,1,"07-29-2015",18:46:15,4,1,"NumberMatching",5,2,1,"D4_1","N8",1,2,1055,1
"Matching_Run1",24,1,"07-29-2015",18:46:15,4,1,"NumberMatching",6,2,2,"N1","D4_2",1,2,1501,1
"Matching_Run1",24,1,"07-29-2015",18:46:15,5,4,"ShapeMatching",1,1,3,"S9","S9",1,1,2012,1
"Matching_Run1",24,1,"07-29-2015",18:46:15,5,4,"ShapeMatching",2,2,2,"S7","S8",1,2,2245,1
"Matching_Run1",24,1,"07-29-2015",18:46:15,5,4,"ShapeMatching",3,2,1,"S9","S1",1,2,1309,1
"Matching_Run1",24,1,"07-29-2015",18:46:15,5,4,"ShapeMatching",4,1,2,"S5","S5",1,1,1236,1
"Matching_Run1",24,1,"07-29-2015",18:46:15,5,4,"ShapeMatching",5,1,1,"S8","S8",1,1,1388,1
"Matching_Run1",24,1,"07-29-2015",18:46:15,5,4,"ShapeMatching",6,2,3,"S3","S4",1,2,1521,1
"Matching_Run1",24,1,"07-29-2015",18:46:15,6,2,"NumberMatching",1,1,2,"N5","D5_1",1,1,2348,1
"Matching_Run1",24,1,"07-29-2015",18:46:15,6,2,"NumberMatching",2,2,3,"N3","D5_2",1,2,2010,1
"Matching_Run1",24,1,"07-29-2015",18:46:15,6,2,"NumberMatching",3,2,1,"N5","D1_2",1,2,1444,1
"Matching_Run1",24,1,"07-29-2015",18:46:15,6,2,"NumberMatching",4,1,2,"N1","D1_1",1,1,1275,1
"Matching_Run1",24,1,"07-29-2015",18:46:15,6,2,"NumberMatching",5,1,3,"D2_2","N2",1,1,1503,1
"Matching_Run1",24,1,"07-29-2015",18:46:15,6,2,"NumberMatching",6,2,1,"N9","D7_2",1,2,2464,1
"Matching_Run1",25,1,"07-22-2015",09:34:55,1,2,"NumberMatching",1,2,3,"N5","D1_2",1,2,1054,1
"Matching_Run1",25,1,"07-22-2015",09:34:55,1,2,"NumberMatching",2,1,1,"D2_2","N2",1,1,915,1
"Matching_Run1",25,1,"07-22-2015",09:34:55,1,2,"NumberMatching",3,2,2,"D8_1","N5",1,2,1224,1
"Matching_Run1",25,1,"07-22-2015",09:34:55,1,2,"NumberMatching",4,1,3,"N3","D3_1",1,1,1023,1
"Matching_Run1",25,1,"07-22-2015",09:34:55,1,2,"NumberMatching",5,2,1,"D2_1","N5",1,2,1098,1
"Matching_Run1",25,1,"07-22-2015",09:34:55,1,2,"NumberMatching",6,1,2,"D8_2","N8",0,2,3092,1
"Matching_Run1",25,1,"07-22-2015",09:34:55,2,4,"ShapeMatching",1,2,3,"S9","S1",1,2,1609,1
"Matching_Run1",25,1,"07-22-2015",09:34:55,2,4,"ShapeMatching",2,1,2,"S6","S6",1,1,1114,1
"Matching_Run1",25,1,"07-22-2015",09:34:55,2,4,"ShapeMatching",3,2,1,"S8","S9",1,2,996,1
"Matching_Run1",25,1,"07-22-2015",09:34:55,2,4,"ShapeMatching",4,1,2,"S5","S5",1,1,920,1
"Matching_Run1",25,1,"07-22-2015",09:34:55,2,4,"ShapeMatching",5,1,3,"S8","S8",1,1,1360,1
"Matching_Run1",25,1,"07-22-2015",09:34:55,2,4,"ShapeMatching",6,2,1,"S6","S7",1,2,1575,1
"Matching_Run1",25,1,"07-22-2015",09:34:55,3,3,"NumberMatching",1,2,3,"D4_1","N8",1,2,1092,1
"Matching_Run1",25,1,"07-22-2015",09:34:55,3,3,"NumberMatching",2,1,1,"D4_2","N4",1,1,1262,1
"Matching_Run1",25,1,"07-22-2015",09:34:55,3,3,"NumberMatching",3,1,2,"N1","D1_1",1,1,982,1
"Matching_Run1",25,1,"07-22-2015",09:34:55,3,3,"NumberMatching",4,1,1,"N5","D5_1",1,1,1229,1
"Matching_Run1",25,1,"07-22-2015",09:34:55,3,3,"NumberMatching",5,1,2,"N7","D7_1",1,1,2146,1
"Matching_Run1",25,1,"07-22-2015",09:34:55,3,3,"NumberMatching",6,2,3,"N9","D7_2",1,2,2150,1
"Matching_Run1",25,1,"07-22-2015",09:34:55,4,5,"ShapeMatching",1,2,2,"S5","S6",1,2,1408,1
"Matching_Run1",25,1,"07-22-2015",09:34:55,4,5,"ShapeMatching",2,1,3,"S7","S7",1,1,871,1
"Matching_Run1",25,1,"07-22-2015",09:34:55,4,5,"ShapeMatching",3,1,1,"S2","S2",1,1,1192,1
"Matching_Run1",25,1,"07-22-2015",09:34:55,4,5,"ShapeMatching",4,1,3,"S3","S3",1,1,1142,1
"Matching_Run1",25,1,"07-22-2015",09:34:55,4,5,"ShapeMatching",5,2,1,"S7","S8",1,2,1038,1
"Matching_Run1",25,1,"07-22-2015",09:34:55,4,5,"ShapeMatching",6,2,2,"S4","S5",1,2,1219,1
"Matching_Run1",25,1,"07-22-2015",09:34:55,5,1,"NumberMatching",1,1,3,"N9","D9_1",0,2,2119,1
"Matching_Run1",25,1,"07-22-2015",09:34:55,5,1,"NumberMatching",2,2,1,"N1","D4_2",1,2,1128,1
"Matching_Run1",25,1,"07-22-2015",09:34:55,5,1,"NumberMatching",3,1,2,"D6_2","N6",1,1,2442,1
"Matching_Run1",25,1,"07-22-2015",09:34:55,5,1,"NumberMatching",4,2,3,"D6_1","N3",1,2,1073,1
"Matching_Run1",25,1,"07-22-2015",09:34:55,5,1,"NumberMatching",5,2,1,"N3","D5_2",1,2,1139,1
"Matching_Run1",25,1,"07-22-2015",09:34:55,5,1,"NumberMatching",6,2,2,"N7","D4_2",1,2,980,1
"Matching_Run1",25,1,"07-22-2015",09:34:55,6,6,"ShapeMatching",1,2,3,"S1","S2",1,2,1011,1
"Matching_Run1",25,1,"07-22-2015",09:34:55,6,6,"ShapeMatching",2,2,1,"S2","S3",1,2,1990,1
"Matching_Run1",25,1,"07-22-2015",09:34:55,6,6,"ShapeMatching",3,1,2,"S4","S4",1,1,969,1
"Matching_Run1",25,1,"07-22-2015",09:34:55,6,6,"ShapeMatching",4,2,1,"S3","S4",1,2,975,1
"Matching_Run1",25,1,"07-22-2015",09:34:55,6,6,"ShapeMatching",5,1,3,"S9","S9",1,1,741,1
"Matching_Run1",25,1,"07-22-2015",09:34:55,6,6,"ShapeMatching",6,1,2,"S1","S1",1,1,880,1
"Matching_Run1",26,1,"07-08-2015",19:16:56,1,3,"NumberMatching",1,1,3,"N7","D7_1",1,1,2285,1
"Matching_Run1",26,1,"07-08-2015",19:16:56,1,3,"NumberMatching",2,2,2,"D6_1","N3",1,2,1355,1
"Matching_Run1",26,1,"07-08-2015",19:16:56,1,3,"NumberMatching",3,1,1,"N3","D3_1",1,1,1143,1
"Matching_Run1",26,1,"07-08-2015",19:16:56,1,3,"NumberMatching",4,2,2,"N7","D4_2",1,2,1957,1
"Matching_Run1",26,1,"07-08-2015",19:16:56,1,3,"NumberMatching",5,1,1,"D8_2","N8",0,2,2538,1
"Matching_Run1",26,1,"07-08-2015",19:16:56,1,3,"NumberMatching",6,2,3,"D2_1","N5",1,2,1320,1
"Matching_Run1",26,1,"07-08-2015",19:16:56,2,4,"ShapeMatching",1,2,2,"S4","S5",1,2,1591,1
"Matching_Run1",26,1,"07-08-2015",19:16:56,2,4,"ShapeMatching",2,1,3,"S4","S4",1,1,784,1
"Matching_Run1",26,1,"07-08-2015",19:16:56,2,4,"ShapeMatching",3,1,1,"S8","S8",1,1,1992,1
"Matching_Run1",26,1,"07-08-2015",19:16:56,2,4,"ShapeMatching",4,2,3,"S7","S8",1,2,1041,1
"Matching_Run1",26,1,"07-08-2015",19:16:56,2,4,"ShapeMatching",5,1,1,"S2","S2",1,1,1276,1
"Matching_Run1",26,1,"07-08-2015",19:16:56,2,4,"ShapeMatching",6,1,2,"S5","S5",1,1,1315,1
"Matching_Run1",26,1,"07-08-2015",19:16:56,3,1,"NumberMatching",1,2,3,"N1","D4_2",1,2,883,1
"Matching_Run1",26,1,"07-08-2015",19:16:56,3,1,"NumberMatching",2,1,2,"N5","D5_1",1,1,1226,1
"Matching_Run1",26,1,"07-08-2015",19:16:56,3,1,"NumberMatching",3,2,1,"N3","D5_2",1,2,1144,1
"Matching_Run1",26,1,"07-08-2015",19:16:56,3,1,"NumberMatching",4,1,3,"D6_2","N6",1,1,2107,1
"Matching_Run1",26,1,"07-08-2015",19:16:56,3,1,"NumberMatching",5,2,1,"D8_1","N5",1,2,1465,1
"Matching_Run1",26,1,"07-08-2015",19:16:56,3,1,"NumberMatching",6,1,2,"D2_2","N2",1,1,1164,1
"Matching_Run1",26,1,"07-08-2015",19:16:56,4,5,"ShapeMatching",1,1,1,"S6","S6",1,1,1248,1
"Matching_Run1",26,1,"07-08-2015",19:16:56,4,5,"ShapeMatching",2,2,3,"S6","S7",1,2,1565,1
"Matching_Run1",26,1,"07-08-2015",19:16:56,4,5,"ShapeMatching",3,1,2,"S9","S9",1,1,1354,1
"Matching_Run1",26,1,"07-08-2015",19:16:56,4,5,"ShapeMatching",4,1,3,"S1","S1",1,1,1016,1
"Matching_Run1",26,1,"07-08-2015",19:16:56,4,5,"ShapeMatching",5,2,1,"S5","S6",1,2,1059,1
"Matching_Run1",26,1,"07-08-2015",19:16:56,4,5,"ShapeMatching",6,2,2,"S9","S1",1,2,1400,1
"Matching_Run1",26,1,"07-08-2015",19:16:56,5,2,"NumberMatching",1,1,1,"N9","D9_1",0,2,2600,1
"Matching_Run1",26,1,"07-08-2015",19:16:56,5,2,"NumberMatching",2,2,2,"N9","D7_2",0,1,2048,1
"Matching_Run1",26,1,"07-08-2015",19:16:56,5,2,"NumberMatching",3,1,3,"N1","D1_1",1,1,933,1
"Matching_Run1",26,1,"07-08-2015",19:16:56,5,2,"NumberMatching",4,1,2,"D4_2","N4",1,1,994,1
"Matching_Run1",26,1,"07-08-2015",19:16:56,5,2,"NumberMatching",5,2,1,"D4_1","N8",1,2,1210,1
"Matching_Run1",26,1,"07-08-2015",19:16:56,5,2,"NumberMatching",6,2,3,"N5","D1_2",1,2,1038,1
"Matching_Run1",26,1,"07-08-2015",19:16:56,6,6,"ShapeMatching",1,1,1,"S3","S3",1,1,970,1
"Matching_Run1",26,1,"07-08-2015",19:16:56,6,6,"ShapeMatching",2,2,3,"S1","S2",1,2,1149,1
"Matching_Run1",26,1,"07-08-2015",19:16:56,6,6,"ShapeMatching",3,2,2,"S3","S4",1,2,1215,1
"Matching_Run1",26,1,"07-08-2015",19:16:56,6,6,"ShapeMatching",4,1,1,"S7","S7",1,1,1121,1
"Matching_Run1",26,1,"07-08-2015",19:16:56,6,6,"ShapeMatching",5,2,3,"S8","S9",1,2,1022,1
"Matching_Run1",26,1,"07-08-2015",19:16:56,6,6,"ShapeMatching",6,2,2,"S2","S3",1,2,1293,1
"Matching_Run1",27,1,"07-26-2015",17:05:10,1,2,"NumberMatching",1,2,2,"N5","D1_2",0,NA,0,1
"Matching_Run1",27,1,"07-26-2015",17:05:10,1,2,"NumberMatching",2,1,3,"N1","D1_1",1,1,1189,1
"Matching_Run1",27,1,"07-26-2015",17:05:10,1,2,"NumberMatching",3,1,1,"D2_2","N2",1,1,1326,1
"Matching_Run1",27,1,"07-26-2015",17:05:10,1,2,"NumberMatching",4,2,2,"D2_1","N5",1,2,960,1
"Matching_Run1",27,1,"07-26-2015",17:05:10,1,2,"NumberMatching",5,1,3,"N5","D5_1",1,1,1068,1
"Matching_Run1",27,1,"07-26-2015",17:05:10,1,2,"NumberMatching",6,1,1,"D8_2","N8",0,NA,0,1
"Matching_Run1",27,1,"07-26-2015",17:05:10,2,1,"NumberMatching",1,1,2,"D4_2","N4",1,1,1569,1
"Matching_Run1",27,1,"07-26-2015",17:05:10,2,1,"NumberMatching",2,2,1,"D8_1","N5",1,2,1015,1
"Matching_Run1",27,1,"07-26-2015",17:05:10,2,1,"NumberMatching",3,2,3,"N1","D4_2",1,2,1302,1
"Matching_Run1",27,1,"07-26-2015",17:05:10,2,1,"NumberMatching",4,2,2,"D6_1","N3",1,2,1107,1
"Matching_Run1",27,1,"07-26-2015",17:05:10,2,1,"NumberMatching",5,1,1,"N3","D3_1",1,1,1223,1
"Matching_Run1",27,1,"07-26-2015",17:05:10,2,1,"NumberMatching",6,2,3,"N9","D7_2",0,NA,0,1
"Matching_Run1",27,1,"07-26-2015",17:05:10,3,4,"ShapeMatching",1,1,1,"S5","S5",1,1,1308,1
"Matching_Run1",27,1,"07-26-2015",17:05:10,3,4,"ShapeMatching",2,2,3,"S3","S4",1,2,904,1
"Matching_Run1",27,1,"07-26-2015",17:05:10,3,4,"ShapeMatching",3,1,2,"S2","S2",1,1,1329,1
"Matching_Run1",27,1,"07-26-2015",17:05:10,3,4,"ShapeMatching",4,2,3,"S6","S7",1,2,900,1
"Matching_Run1",27,1,"07-26-2015",17:05:10,3,4,"ShapeMatching",5,2,1,"S2","S3",1,2,2217,1
"Matching_Run1",27,1,"07-26-2015",17:05:10,3,4,"ShapeMatching",6,1,2,"S7","S7",1,1,1277,1
"Matching_Run1",27,1,"07-26-2015",17:05:10,4,3,"NumberMatching",1,1,1,"N9","D9_1",1,1,2074,1
"Matching_Run1",27,1,"07-26-2015",17:05:10,4,3,"NumberMatching",2,1,3,"N7","D7_1",0,2,2255,1
"Matching_Run1",27,1,"07-26-2015",17:05:10,4,3,"NumberMatching",3,2,2,"N7","D4_2",1,2,1254,1
"Matching_Run1",27,1,"07-26-2015",17:05:10,4,3,"NumberMatching",4,2,3,"N3","D5_2",0,1,1018,1
"Matching_Run1",27,1,"07-26-2015",17:05:10,4,3,"NumberMatching",5,2,1,"D4_1","N8",1,2,1465,1
"Matching_Run1",27,1,"07-26-2015",17:05:10,4,3,"NumberMatching",6,1,2,"D6_2","N6",0,2,1291,1
"Matching_Run1",27,1,"07-26-2015",17:05:10,5,6,"ShapeMatching",1,1,3,"S4","S4",1,1,960,1
"Matching_Run1",27,1,"07-26-2015",17:05:10,5,6,"ShapeMatching",2,1,2,"S1","S1",1,1,1016,1
"Matching_Run1",27,1,"07-26-2015",17:05:10,5,6,"ShapeMatching",3,2,1,"S4","S5",1,2,892,1
"Matching_Run1",27,1,"07-26-2015",17:05:10,5,6,"ShapeMatching",4,1,3,"S3","S3",1,1,1257,1
"Matching_Run1",27,1,"07-26-2015",17:05:10,5,6,"ShapeMatching",5,2,1,"S1","S2",0,1,1600,1
"Matching_Run1",27,1,"07-26-2015",17:05:10,5,6,"ShapeMatching",6,2,2,"S7","S8",0,NA,0,1
"Matching_Run1",27,1,"07-26-2015",17:05:10,6,5,"ShapeMatching",1,2,1,"S5","S6",1,2,1632,1
"Matching_Run1",27,1,"07-26-2015",17:05:10,6,5,"ShapeMatching",2,1,2,"S9","S9",0,2,2197,1
"Matching_Run1",27,1,"07-26-2015",17:05:10,6,5,"ShapeMatching",3,1,3,"S8","S8",1,1,2256,1
"Matching_Run1",27,1,"07-26-2015",17:05:10,6,5,"ShapeMatching",4,2,2,"S8","S9",1,2,1187,1
"Matching_Run1",27,1,"07-26-2015",17:05:10,6,5,"ShapeMatching",5,1,1,"S6","S6",1,1,2381,1
"Matching_Run1",27,1,"07-26-2015",17:05:10,6,5,"ShapeMatching",6,2,3,"S9","S1",1,2,1317,1
"Matching_Run1",28,1,"07-08-2015",18:25:11,1,1,"NumberMatching",1,1,3,"D6_2","N6",0,NA,0,1
"Matching_Run1",28,1,"07-08-2015",18:25:11,1,1,"NumberMatching",2,2,2,"D4_1","N8",0,1,2630,1
"Matching_Run1",28,1,"07-08-2015",18:25:11,1,1,"NumberMatching",3,1,1,"N5","D5_1",0,2,576,1
"Matching_Run1",28,1,"07-08-2015",18:25:11,1,1,"NumberMatching",4,1,2,"D4_2","N4",1,1,1396,1
"Matching_Run1",28,1,"07-08-2015",18:25:11,1,1,"NumberMatching",5,1,1,"D2_2","N2",1,1,2478,1
"Matching_Run1",28,1,"07-08-2015",18:25:11,1,1,"NumberMatching",6,2,3,"N7","D4_2",0,1,1431,1
"Matching_Run1",28,1,"07-08-2015",18:25:11,2,3,"NumberMatching",1,2,1,"D2_1","N5",1,2,2571,1
"Matching_Run1",28,1,"07-08-2015",18:25:11,2,3,"NumberMatching",2,2,3,"N1","D4_2",1,2,1449,1
"Matching_Run1",28,1,"07-08-2015",18:25:11,2,3,"NumberMatching",3,2,2,"N5","D1_2",1,2,1496,1
"Matching_Run1",28,1,"07-08-2015",18:25:11,2,3,"NumberMatching",4,2,3,"N9","D7_2",0,1,1917,1
"Matching_Run1",28,1,"07-08-2015",18:25:11,2,3,"NumberMatching",5,1,1,"D8_2","N8",1,1,1365,1
"Matching_Run1",28,1,"07-08-2015",18:25:11,2,3,"NumberMatching",6,2,2,"D6_1","N3",1,2,1808,1
"Matching_Run1",28,1,"07-08-2015",18:25:11,3,4,"ShapeMatching",1,2,1,"S1","S2",1,2,2574,1
"Matching_Run1",28,1,"07-08-2015",18:25:11,3,4,"ShapeMatching",2,1,3,"S1","S1",1,1,1338,1
"Matching_Run1",28,1,"07-08-2015",18:25:11,3,4,"ShapeMatching",3,2,2,"S7","S8",1,2,1730,1
"Matching_Run1",28,1,"07-08-2015",18:25:11,3,4,"ShapeMatching",4,2,3,"S5","S6",1,2,1096,1
"Matching_Run1",28,1,"07-08-2015",18:25:11,3,4,"ShapeMatching",5,1,1,"S4","S4",1,1,2142,1
"Matching_Run1",28,1,"07-08-2015",18:25:11,3,4,"ShapeMatching",6,1,2,"S6","S6",1,1,2799,1
"Matching_Run1",28,1,"07-08-2015",18:25:11,4,2,"NumberMatching",1,2,1,"N3","D5_2",1,2,1710,1
"Matching_Run1",28,1,"07-08-2015",18:25:11,4,2,"NumberMatching",2,1,2,"N9","D9_1",1,1,1555,1
"Matching_Run1",28,1,"07-08-2015",18:25:11,4,2,"NumberMatching",3,1,3,"N3","D3_1",1,1,1488,1
"Matching_Run1",28,1,"07-08-2015",18:25:11,4,2,"NumberMatching",4,2,1,"D8_1","N5",1,2,2164,1
"Matching_Run1",28,1,"07-08-2015",18:25:11,4,2,"NumberMatching",5,1,2,"N7","D7_1",1,1,3291,1
"Matching_Run1",28,1,"07-08-2015",18:25:11,4,2,"NumberMatching",6,1,3,"N1","D1_1",1,1,1238,1
"Matching_Run1",28,1,"07-08-2015",18:25:11,5,6,"ShapeMatching",1,1,1,"S9","S9",0,NA,0,1
"Matching_Run1",28,1,"07-08-2015",18:25:11,5,6,"ShapeMatching",2,1,2,"S3","S3",0,NA,0,1
"Matching_Run1",28,1,"07-08-2015",18:25:11,5,6,"ShapeMatching",3,1,3,"S7","S7",0,NA,0,1
"Matching_Run1",28,1,"07-08-2015",18:25:11,5,6,"ShapeMatching",4,2,1,"S2","S3",0,NA,0,1
"Matching_Run1",28,1,"07-08-2015",18:25:11,5,6,"ShapeMatching",5,2,3,"S4","S5",0,NA,0,1
"Matching_Run1",28,1,"07-08-2015",18:25:11,5,6,"ShapeMatching",6,2,2,"S6","S7",1,2,1144,1
"Matching_Run1",28,1,"07-08-2015",18:25:11,6,5,"ShapeMatching",1,1,3,"S8","S8",1,1,2843,1
"Matching_Run1",28,1,"07-08-2015",18:25:11,6,5,"ShapeMatching",2,1,2,"S2","S2",1,1,1982,1
"Matching_Run1",28,1,"07-08-2015",18:25:11,6,5,"ShapeMatching",3,2,1,"S8","S9",1,2,1296,1
"Matching_Run1",28,1,"07-08-2015",18:25:11,6,5,"ShapeMatching",4,2,2,"S9","S1",1,2,2529,1
"Matching_Run1",28,1,"07-08-2015",18:25:11,6,5,"ShapeMatching",5,1,1,"S5","S5",1,1,858,1
"Matching_Run1",28,1,"07-08-2015",18:25:11,6,5,"ShapeMatching",6,2,3,"S3","S4",1,2,1190,1
"Matching_Run1",29,1,"07-31-2015",19:23:13,1,4,"ShapeMatching",1,1,3,"S6","S6",1,1,872,1
"Matching_Run1",29,1,"07-31-2015",19:23:13,1,4,"ShapeMatching",2,2,2,"S8","S9",1,2,998,1
"Matching_Run1",29,1,"07-31-2015",19:23:13,1,4,"ShapeMatching",3,2,1,"S5","S6",1,2,954,1
"Matching_Run1",29,1,"07-31-2015",19:23:13,1,4,"ShapeMatching",4,2,2,"S2","S3",1,2,1067,1
"Matching_Run1",29,1,"07-31-2015",19:23:13,1,4,"ShapeMatching",5,2,3,"S1","S2",1,2,1167,1
"Matching_Run1",29,1,"07-31-2015",19:23:13,1,4,"ShapeMatching",6,1,1,"S8","S8",1,1,1114,1
"Matching_Run1",29,1,"07-31-2015",19:23:13,2,3,"NumberMatching",1,1,3,"N9","D9_1",1,1,2881,1
"Matching_Run1",29,1,"07-31-2015",19:23:13,2,3,"NumberMatching",2,2,2,"N5","D1_2",0,1,1013,1
"Matching_Run1",29,1,"07-31-2015",19:23:13,2,3,"NumberMatching",3,1,1,"D2_2","N2",1,1,1097,1
"Matching_Run1",29,1,"07-31-2015",19:23:13,2,3,"NumberMatching",4,2,3,"D2_1","N5",1,2,1453,1
"Matching_Run1",29,1,"07-31-2015",19:23:13,2,3,"NumberMatching",5,1,2,"N3","D3_1",1,1,865,1
"Matching_Run1",29,1,"07-31-2015",19:23:13,2,3,"NumberMatching",6,2,1,"N7","D4_2",1,2,1477,1
"Matching_Run1",29,1,"07-31-2015",19:23:13,3,2,"NumberMatching",1,2,3,"D4_1","N8",1,2,1471,1
"Matching_Run1",29,1,"07-31-2015",19:23:13,3,2,"NumberMatching",2,1,2,"D6_2","N6",0,2,1886,1
"Matching_Run1",29,1,"07-31-2015",19:23:13,3,2,"NumberMatching",3,1,1,"N1","D1_1",1,1,841,1
"Matching_Run1",29,1,"07-31-2015",19:23:13,3,2,"NumberMatching",4,1,3,"N5","D5_1",1,1,1781,1
"Matching_Run1",29,1,"07-31-2015",19:23:13,3,2,"NumberMatching",5,1,2,"N7","D7_1",0,NA,0,1
"Matching_Run1",29,1,"07-31-2015",19:23:13,3,2,"NumberMatching",6,2,1,"N1","D4_2",1,2,1549,1
"Matching_Run1",29,1,"07-31-2015",19:23:13,4,1,"NumberMatching",1,2,2,"D8_1","N5",1,2,1137,1
"Matching_Run1",29,1,"07-31-2015",19:23:13,4,1,"NumberMatching",2,1,3,"D4_2","N4",1,1,1181,1
"Matching_Run1",29,1,"07-31-2015",19:23:13,4,1,"NumberMatching",3,2,1,"N9","D7_2",0,NA,0,1
"Matching_Run1",29,1,"07-31-2015",19:23:13,4,1,"NumberMatching",4,2,3,"D6_1","N3",1,2,58,1
"Matching_Run1",29,1,"07-31-2015",19:23:13,4,1,"NumberMatching",5,1,1,"D8_2","N8",1,1,1904,1
"Matching_Run1",29,1,"07-31-2015",19:23:13,4,1,"NumberMatching",6,2,2,"N3","D5_2",1,2,1184,1
"Matching_Run1",29,1,"07-31-2015",19:23:13,5,5,"ShapeMatching",1,2,3,"S7","S8",1,2,1142,1
"Matching_Run1",29,1,"07-31-2015",19:23:13,5,5,"ShapeMatching",2,1,2,"S7","S7",0,2,1634,1
"Matching_Run1",29,1,"07-31-2015",19:23:13,5,5,"ShapeMatching",3,1,1,"S9","S9",1,1,876,1
"Matching_Run1",29,1,"07-31-2015",19:23:13,5,5,"ShapeMatching",4,1,2,"S2","S2",1,1,943,1
"Matching_Run1",29,1,"07-31-2015",19:23:13,5,5,"ShapeMatching",5,2,1,"S6","S7",1,2,1265,1
"Matching_Run1",29,1,"07-31-2015",19:23:13,5,5,"ShapeMatching",6,2,3,"S9","S1",1,2,1037,1
"Matching_Run1",29,1,"07-31-2015",19:23:13,6,6,"ShapeMatching",1,2,1,"S3","S4",1,2,905,1
"Matching_Run1",29,1,"07-31-2015",19:23:13,6,6,"ShapeMatching",2,1,3,"S5","S5",1,1,923,1
"Matching_Run1",29,1,"07-31-2015",19:23:13,6,6,"ShapeMatching",3,1,2,"S1","S1",1,1,992,1
"Matching_Run1",29,1,"07-31-2015",19:23:13,6,6,"ShapeMatching",4,2,3,"S4","S5",1,2,1041,1
"Matching_Run1",29,1,"07-31-2015",19:23:13,6,6,"ShapeMatching",5,1,1,"S3","S3",1,1,1490,1
"Matching_Run1",29,1,"07-31-2015",19:23:13,6,6,"ShapeMatching",6,1,2,"S4","S4",1,1,1750,1
"Matching_Run1",31,1,"07-12-2015",13:14:17,1,2,"NumberMatching",1,2,2,"D8_1","N5",1,2,1102,1
"Matching_Run1",31,1,"07-12-2015",13:14:17,1,2,"NumberMatching",2,1,1,"N9","D9_1",1,1,1811,1
"Matching_Run1",31,1,"07-12-2015",13:14:17,1,2,"NumberMatching",3,2,3,"D2_1","N5",1,2,841,1
"Matching_Run1",31,1,"07-12-2015",13:14:17,1,2,"NumberMatching",4,2,2,"N3","D5_2",0,1,882,1
"Matching_Run1",31,1,"07-12-2015",13:14:17,1,2,"NumberMatching",5,1,1,"N5","D5_1",1,1,1007,1
"Matching_Run1",31,1,"07-12-2015",13:14:17,1,2,"NumberMatching",6,1,3,"N1","D1_1",0,2,706,1
"Matching_Run1",31,1,"07-12-2015",13:14:17,2,5,"ShapeMatching",1,2,2,"S1","S2",1,2,984,1
"Matching_Run1",31,1,"07-12-2015",13:14:17,2,5,"ShapeMatching",2,1,1,"S9","S9",1,1,1130,1
"Matching_Run1",31,1,"07-12-2015",13:14:17,2,5,"ShapeMatching",3,1,3,"S7","S7",1,1,644,1
"Matching_Run1",31,1,"07-12-2015",13:14:17,2,5,"ShapeMatching",4,2,2,"S5","S6",1,2,630,1
"Matching_Run1",31,1,"07-12-2015",13:14:17,2,5,"ShapeMatching",5,1,1,"S6","S6",1,1,1024,1
"Matching_Run1",31,1,"07-12-2015",13:14:17,2,5,"ShapeMatching",6,2,3,"S3","S4",1,2,913,1
"Matching_Run1",31,1,"07-12-2015",13:14:17,3,3,"NumberMatching",1,1,1,"D2_2","N2",1,1,1069,1
"Matching_Run1",31,1,"07-12-2015",13:14:17,3,3,"NumberMatching",2,2,2,"N7","D4_2",1,2,1141,1
"Matching_Run1",31,1,"07-12-2015",13:14:17,3,3,"NumberMatching",3,2,3,"N1","D4_2",1,2,1131,1
"Matching_Run1",31,1,"07-12-2015",13:14:17,3,3,"NumberMatching",4,1,2,"N3","D3_1",1,1,1024,1
"Matching_Run1",31,1,"07-12-2015",13:14:17,3,3,"NumberMatching",5,2,1,"D4_1","N8",1,2,1114,1
"Matching_Run1",31,1,"07-12-2015",13:14:17,3,3,"NumberMatching",6,2,3,"N9","D7_2",0,1,1276,1
"Matching_Run1",31,1,"07-12-2015",13:14:17,4,6,"ShapeMatching",1,2,2,"S6","S7",1,2,918,1
"Matching_Run1",31,1,"07-12-2015",13:14:17,4,6,"ShapeMatching",2,1,1,"S8","S8",1,1,1154,1
"Matching_Run1",31,1,"07-12-2015",13:14:17,4,6,"ShapeMatching",3,2,3,"S7","S8",1,2,899,1
"Matching_Run1",31,1,"07-12-2015",13:14:17,4,6,"ShapeMatching",4,2,2,"S2","S3",1,2,737,1
"Matching_Run1",31,1,"07-12-2015",13:14:17,4,6,"ShapeMatching",5,1,3,"S4","S4",1,1,929,1
"Matching_Run1",31,1,"07-12-2015",13:14:17,4,6,"ShapeMatching",6,2,1,"S4","S5",1,2,836,1
"Matching_Run1",31,1,"07-12-2015",13:14:17,5,4,"ShapeMatching",1,2,2,"S9","S1",1,2,992,1
"Matching_Run1",31,1,"07-12-2015",13:14:17,5,4,"ShapeMatching",2,1,3,"S1","S1",1,1,1037,1
"Matching_Run1",31,1,"07-12-2015",13:14:17,5,4,"ShapeMatching",3,1,1,"S3","S3",0,2,879,1
"Matching_Run1",31,1,"07-12-2015",13:14:17,5,4,"ShapeMatching",4,1,2,"S2","S2",1,1,883,1
"Matching_Run1",31,1,"07-12-2015",13:14:17,5,4,"ShapeMatching",5,1,1,"S5","S5",0,2,1148,1
"Matching_Run1",31,1,"07-12-2015",13:14:17,5,4,"ShapeMatching",6,2,3,"S8","S9",1,2,1133,1
"Matching_Run1",31,1,"07-12-2015",13:14:17,6,1,"NumberMatching",1,2,2,"N5","D1_2",1,2,1412,1
"Matching_Run1",31,1,"07-12-2015",13:14:17,6,1,"NumberMatching",2,2,1,"D6_1","N3",1,2,906,1
"Matching_Run1",31,1,"07-12-2015",13:14:17,6,1,"NumberMatching",3,1,3,"D4_2","N4",1,1,1243,1
"Matching_Run1",31,1,"07-12-2015",13:14:17,6,1,"NumberMatching",4,1,1,"D6_2","N6",1,1,1942,1
"Matching_Run1",31,1,"07-12-2015",13:14:17,6,1,"NumberMatching",5,1,2,"D8_2","N8",0,2,977,1
"Matching_Run1",31,1,"07-12-2015",13:14:17,6,1,"NumberMatching",6,1,3,"N7","D7_1",1,1,1468,1
"Matching_Run1",32,1,"07-12-2015",12:40:00,1,2,"NumberMatching",1,1,2,"D6_2","N6",1,1,2879,1
"Matching_Run1",32,1,"07-12-2015",12:40:00,1,2,"NumberMatching",2,2,3,"N7","D4_2",1,2,1064,1
"Matching_Run1",32,1,"07-12-2015",12:40:00,1,2,"NumberMatching",3,2,1,"N9","D7_2",0,1,1293,1
"Matching_Run1",32,1,"07-12-2015",12:40:00,1,2,"NumberMatching",4,1,2,"D2_2","N2",1,1,1137,1
"Matching_Run1",32,1,"07-12-2015",12:40:00,1,2,"NumberMatching",5,1,1,"N7","D7_1",1,1,1055,1
"Matching_Run1",32,1,"07-12-2015",12:40:00,1,2,"NumberMatching",6,2,3,"N3","D5_2",1,2,1246,1
"Matching_Run1",32,1,"07-12-2015",12:40:00,2,5,"ShapeMatching",1,2,2,"S5","S6",1,2,1364,1
"Matching_Run1",32,1,"07-12-2015",12:40:00,2,5,"ShapeMatching",2,2,1,"S2","S3",1,2,1003,1
"Matching_Run1",32,1,"07-12-2015",12:40:00,2,5,"ShapeMatching",3,2,3,"S1","S2",1,2,956,1
"Matching_Run1",32,1,"07-12-2015",12:40:00,2,5,"ShapeMatching",4,1,1,"S4","S4",1,1,518,1
"Matching_Run1",32,1,"07-12-2015",12:40:00,2,5,"ShapeMatching",5,2,3,"S7","S8",1,2,863,1
"Matching_Run1",32,1,"07-12-2015",12:40:00,2,5,"ShapeMatching",6,2,2,"S4","S5",1,2,819,1
"Matching_Run1",32,1,"07-12-2015",12:40:00,3,3,"NumberMatching",1,1,3,"N9","D9_1",1,1,991,1
"Matching_Run1",32,1,"07-12-2015",12:40:00,3,3,"NumberMatching",2,1,2,"N3","D3_1",1,1,1296,1
"Matching_Run1",32,1,"07-12-2015",12:40:00,3,3,"NumberMatching",3,2,1,"D8_1","N5",1,2,973,1
"Matching_Run1",32,1,"07-12-2015",12:40:00,3,3,"NumberMatching",4,1,3,"D4_2","N4",1,1,1350,1
"Matching_Run1",32,1,"07-12-2015",12:40:00,3,3,"NumberMatching",5,2,1,"D2_1","N5",1,2,1119,1
"Matching_Run1",32,1,"07-12-2015",12:40:00,3,3,"NumberMatching",6,1,2,"N1","D1_1",1,1,1224,1
"Matching_Run1",32,1,"07-12-2015",12:40:00,4,1,"NumberMatching",1,2,1,"N1","D4_2",1,2,1025,1
"Matching_Run1",32,1,"07-12-2015",12:40:00,4,1,"NumberMatching",2,1,2,"N5","D5_1",1,1,1312,1
"Matching_Run1",32,1,"07-12-2015",12:40:00,4,1,"NumberMatching",3,2,3,"D6_1","N3",1,2,922,1
"Matching_Run1",32,1,"07-12-2015",12:40:00,4,1,"NumberMatching",4,2,2,"D4_1","N8",1,2,1532,1
"Matching_Run1",32,1,"07-12-2015",12:40:00,4,1,"NumberMatching",5,1,1,"D8_2","N8",1,1,927,1
"Matching_Run1",32,1,"07-12-2015",12:40:00,4,1,"NumberMatching",6,2,3,"N5","D1_2",1,2,948,1
"Matching_Run1",32,1,"07-12-2015",12:40:00,5,6,"ShapeMatching",1,1,2,"S8","S8",1,1,1344,1
"Matching_Run1",32,1,"07-12-2015",12:40:00,5,6,"ShapeMatching",2,1,3,"S2","S2",1,1,824,1
"Matching_Run1",32,1,"07-12-2015",12:40:00,5,6,"ShapeMatching",3,2,1,"S8","S9",1,2,744,1
"Matching_Run1",32,1,"07-12-2015",12:40:00,5,6,"ShapeMatching",4,2,2,"S9","S1",1,2,971,1
"Matching_Run1",32,1,"07-12-2015",12:40:00,5,6,"ShapeMatching",5,1,3,"S9","S9",1,1,953,1
"Matching_Run1",32,1,"07-12-2015",12:40:00,5,6,"ShapeMatching",6,1,1,"S1","S1",1,1,759,1
"Matching_Run1",32,1,"07-12-2015",12:40:00,6,4,"ShapeMatching",1,2,3,"S3","S4",1,2,923,1
"Matching_Run1",32,1,"07-12-2015",12:40:00,6,4,"ShapeMatching",2,1,2,"S5","S5",1,1,817,1
"Matching_Run1",32,1,"07-12-2015",12:40:00,6,4,"ShapeMatching",3,1,1,"S6","S6",1,1,1371,1
"Matching_Run1",32,1,"07-12-2015",12:40:00,6,4,"ShapeMatching",4,1,3,"S7","S7",1,1,886,1
"Matching_Run1",32,1,"07-12-2015",12:40:00,6,4,"ShapeMatching",5,2,1,"S6","S7",1,2,815,1
"Matching_Run1",32,1,"07-12-2015",12:40:00,6,4,"ShapeMatching",6,1,2,"S3","S3",1,1,882,1
"Matching_Run1",33,1,"07-15-2015",11:36:29,1,4,"ShapeMatching",1,2,2,"S2","S3",1,2,1089,1
"Matching_Run1",33,1,"07-15-2015",11:36:29,1,4,"ShapeMatching",2,1,3,"S7","S7",1,1,1166,1
"Matching_Run1",33,1,"07-15-2015",11:36:29,1,4,"ShapeMatching",3,2,1,"S3","S4",1,2,1414,1
"Matching_Run1",33,1,"07-15-2015",11:36:29,1,4,"ShapeMatching",4,2,3,"S4","S5",1,2,1798,1
"Matching_Run1",33,1,"07-15-2015",11:36:29,1,4,"ShapeMatching",5,2,2,"S1","S2",1,2,1299,1
"Matching_Run1",33,1,"07-15-2015",11:36:29,1,4,"ShapeMatching",6,2,1,"S9","S1",1,2,1046,1
"Matching_Run1",33,1,"07-15-2015",11:36:29,2,5,"ShapeMatching",1,1,2,"S3","S3",1,1,921,1
"Matching_Run1",33,1,"07-15-2015",11:36:29,2,5,"ShapeMatching",2,2,1,"S5","S6",1,2,1691,1
"Matching_Run1",33,1,"07-15-2015",11:36:29,2,5,"ShapeMatching",3,2,3,"S8","S9",1,2,1262,1
"Matching_Run1",33,1,"07-15-2015",11:36:29,2,5,"ShapeMatching",4,2,2,"S7","S8",1,2,1827,1
"Matching_Run1",33,1,"07-15-2015",11:36:29,2,5,"ShapeMatching",5,1,1,"S8","S8",1,1,1165,1
"Matching_Run1",33,1,"07-15-2015",11:36:29,2,5,"ShapeMatching",6,1,3,"S2","S2",1,1,1107,1
"Matching_Run1",33,1,"07-15-2015",11:36:29,3,3,"NumberMatching",1,2,2,"N3","D5_2",1,2,1625,1
"Matching_Run1",33,1,"07-15-2015",11:36:29,3,3,"NumberMatching",2,1,1,"N1","D1_1",1,1,903,1
"Matching_Run1",33,1,"07-15-2015",11:36:29,3,3,"NumberMatching",3,2,3,"D8_1","N5",1,2,1414,1
"Matching_Run1",33,1,"07-15-2015",11:36:29,3,3,"NumberMatching",4,1,2,"N5","D5_1",1,1,1433,1
"Matching_Run1",33,1,"07-15-2015",11:36:29,3,3,"NumberMatching",5,2,1,"D6_1","N3",1,2,929,1
"Matching_Run1",33,1,"07-15-2015",11:36:29,3,3,"NumberMatching",6,1,3,"D6_2","N6",1,1,3054,1
"Matching_Run1",33,1,"07-15-2015",11:36:29,4,2,"NumberMatching",1,1,1,"N3","D3_1",1,1,1537,1
"Matching_Run1",33,1,"07-15-2015",11:36:29,4,2,"NumberMatching",2,1,3,"D2_2","N2",1,1,1342,1
"Matching_Run1",33,1,"07-15-2015",11:36:29,4,2,"NumberMatching",3,2,2,"N7","D4_2",1,2,1767,1
"Matching_Run1",33,1,"07-15-2015",11:36:29,4,2,"NumberMatching",4,2,3,"D2_1","N5",1,2,1471,1
"Matching_Run1",33,1,"07-15-2015",11:36:29,4,2,"NumberMatching",5,2,1,"N1","D4_2",1,2,1076,1
"Matching_Run1",33,1,"07-15-2015",11:36:29,4,2,"NumberMatching",6,2,2,"N9","D7_2",0,NA,0,1
"Matching_Run1",33,1,"07-15-2015",11:36:29,5,6,"ShapeMatching",1,1,1,"S1","S1",0,2,1238,1
"Matching_Run1",33,1,"07-15-2015",11:36:29,5,6,"ShapeMatching",2,1,2,"S5","S5",1,1,1323,1
"Matching_Run1",33,1,"07-15-2015",11:36:29,5,6,"ShapeMatching",3,1,3,"S4","S4",1,1,710,1
"Matching_Run1",33,1,"07-15-2015",11:36:29,5,6,"ShapeMatching",4,1,2,"S9","S9",1,1,911,1
"Matching_Run1",33,1,"07-15-2015",11:36:29,5,6,"ShapeMatching",5,2,3,"S6","S7",1,2,1235,1
"Matching_Run1",33,1,"07-15-2015",11:36:29,5,6,"ShapeMatching",6,1,1,"S6","S6",1,1,1170,1
"Matching_Run1",33,1,"07-15-2015",11:36:29,6,1,"NumberMatching",1,2,2,"N5","D1_2",1,2,1664,1
"Matching_Run1",33,1,"07-15-2015",11:36:29,6,1,"NumberMatching",2,1,1,"D4_2","N4",1,1,2237,1
"Matching_Run1",33,1,"07-15-2015",11:36:29,6,1,"NumberMatching",3,2,3,"D4_1","N8",1,2,1554,1
"Matching_Run1",33,1,"07-15-2015",11:36:29,6,1,"NumberMatching",4,1,1,"N7","D7_1",1,1,2882,1
"Matching_Run1",33,1,"07-15-2015",11:36:29,6,1,"NumberMatching",5,1,3,"D8_2","N8",1,1,3129,1
"Matching_Run1",33,1,"07-15-2015",11:36:29,6,1,"NumberMatching",6,1,2,"N9","D9_1",1,1,2051,1
"Matching_Run1",34,1,"07-15-2015",12:12:22,1,1,"NumberMatching",1,2,2,"D4_1","N8",1,2,2451,1
"Matching_Run1",34,1,"07-15-2015",12:12:22,1,1,"NumberMatching",2,1,1,"D4_2","N4",1,1,1457,1
"Matching_Run1",34,1,"07-15-2015",12:12:22,1,1,"NumberMatching",3,1,3,"N5","D5_1",1,1,1313,1
"Matching_Run1",34,1,"07-15-2015",12:12:22,1,1,"NumberMatching",4,2,1,"N9","D7_2",0,NA,0,1
"Matching_Run1",34,1,"07-15-2015",12:12:22,1,1,"NumberMatching",5,1,3,"N9","D9_1",0,2,1945,1
"Matching_Run1",34,1,"07-15-2015",12:12:22,1,1,"NumberMatching",6,2,2,"N1","D4_2",0,NA,0,1
"Matching_Run1",34,1,"07-15-2015",12:12:22,2,5,"ShapeMatching",1,2,1,"S6","S7",1,2,2138,1
"Matching_Run1",34,1,"07-15-2015",12:12:22,2,5,"ShapeMatching",2,2,2,"S9","S1",1,2,1281,1
"Matching_Run1",34,1,"07-15-2015",12:12:22,2,5,"ShapeMatching",3,1,3,"S3","S3",1,1,759,1
"Matching_Run1",34,1,"07-15-2015",12:12:22,2,5,"ShapeMatching",4,2,1,"S7","S8",1,2,1280,1
"Matching_Run1",34,1,"07-15-2015",12:12:22,2,5,"ShapeMatching",5,2,2,"S8","S9",1,2,1180,1
"Matching_Run1",34,1,"07-15-2015",12:12:22,2,5,"ShapeMatching",6,1,3,"S2","S2",1,1,1013,1
"Matching_Run1",34,1,"07-15-2015",12:12:22,3,4,"ShapeMatching",1,1,1,"S7","S7",0,2,1308,1
"Matching_Run1",34,1,"07-15-2015",12:12:22,3,4,"ShapeMatching",2,1,3,"S4","S4",1,1,1016,1
"Matching_Run1",34,1,"07-15-2015",12:12:22,3,4,"ShapeMatching",3,2,2,"S3","S4",1,2,1468,1
"Matching_Run1",34,1,"07-15-2015",12:12:22,3,4,"ShapeMatching",4,2,3,"S4","S5",0,NA,0,1
"Matching_Run1",34,1,"07-15-2015",12:12:22,3,4,"ShapeMatching",5,1,2,"S6","S6",1,1,1051,1
"Matching_Run1",34,1,"07-15-2015",12:12:22,3,4,"ShapeMatching",6,2,1,"S5","S6",1,2,1010,1
"Matching_Run1",34,1,"07-15-2015",12:12:22,4,3,"NumberMatching",1,2,2,"N5","D1_2",1,2,1718,1
"Matching_Run1",34,1,"07-15-2015",12:12:22,4,3,"NumberMatching",2,2,3,"D8_1","N5",1,2,2019,1
"Matching_Run1",34,1,"07-15-2015",12:12:22,4,3,"NumberMatching",3,1,1,"D8_2","N8",0,NA,0,1
"Matching_Run1",34,1,"07-15-2015",12:12:22,4,3,"NumberMatching",4,1,3,"N3","D3_1",1,1,1507,1
"Matching_Run1",34,1,"07-15-2015",12:12:22,4,3,"NumberMatching",5,2,2,"N7","D4_2",1,2,1776,1
"Matching_Run1",34,1,"07-15-2015",12:12:22,4,3,"NumberMatching",6,1,1,"N7","D7_1",0,2,1937,1
"Matching_Run1",34,1,"07-15-2015",12:12:22,5,6,"ShapeMatching",1,1,2,"S8","S8",1,1,1923,1
"Matching_Run1",34,1,"07-15-2015",12:12:22,5,6,"ShapeMatching",2,2,3,"S2","S3",1,2,1605,1
"Matching_Run1",34,1,"07-15-2015",12:12:22,5,6,"ShapeMatching",3,1,1,"S5","S5",0,NA,0,1
"Matching_Run1",34,1,"07-15-2015",12:12:22,5,6,"ShapeMatching",4,1,2,"S1","S1",1,1,3003,1
"Matching_Run1",34,1,"07-15-2015",12:12:22,5,6,"ShapeMatching",5,1,1,"S9","S9",1,1,1144,1
"Matching_Run1",34,1,"07-15-2015",12:12:22,5,6,"ShapeMatching",6,2,3,"S1","S2",1,2,1674,1
"Matching_Run1",34,1,"07-15-2015",12:12:22,6,2,"NumberMatching",1,1,2,"D2_2","N2",1,1,2296,1
"Matching_Run1",34,1,"07-15-2015",12:12:22,6,2,"NumberMatching",2,2,1,"D6_1","N3",1,2,1189,1
"Matching_Run1",34,1,"07-15-2015",12:12:22,6,2,"NumberMatching",3,2,3,"N3","D5_2",0,1,1854,1
"Matching_Run1",34,1,"07-15-2015",12:12:22,6,2,"NumberMatching",4,1,2,"D6_2","N6",0,2,1435,1
"Matching_Run1",34,1,"07-15-2015",12:12:22,6,2,"NumberMatching",5,2,3,"D2_1","N5",1,2,1207,1
"Matching_Run1",34,1,"07-15-2015",12:12:22,6,2,"NumberMatching",6,1,1,"N1","D1_1",1,1,1384,1
"Matching_Run1",35,1,"07-22-2015",13:13:01,1,2,"NumberMatching",1,1,1,"D4_2","N4",1,1,1270,1
"Matching_Run1",35,1,"07-22-2015",13:13:01,1,2,"NumberMatching",2,2,2,"D6_1","N3",1,2,1556,1
"Matching_Run1",35,1,"07-22-2015",13:13:01,1,2,"NumberMatching",3,1,3,"D2_2","N2",1,1,811,1
"Matching_Run1",35,1,"07-22-2015",13:13:01,1,2,"NumberMatching",4,1,1,"N7","D7_1",0,2,905,1
"Matching_Run1",35,1,"07-22-2015",13:13:01,1,2,"NumberMatching",5,2,3,"N5","D1_2",1,2,1333,1
"Matching_Run1",35,1,"07-22-2015",13:13:01,1,2,"NumberMatching",6,2,2,"N7","D4_2",0,1,1335,1
"Matching_Run1",35,1,"07-22-2015",13:13:01,2,6,"ShapeMatching",1,1,1,"S6","S6",1,1,1782,1
"Matching_Run1",35,1,"07-22-2015",13:13:01,2,6,"ShapeMatching",2,1,2,"S4","S4",1,1,763,1
"Matching_Run1",35,1,"07-22-2015",13:13:01,2,6,"ShapeMatching",3,2,3,"S5","S6",1,2,1133,1
"Matching_Run1",35,1,"07-22-2015",13:13:01,2,6,"ShapeMatching",4,2,1,"S7","S8",0,1,1069,1
"Matching_Run1",35,1,"07-22-2015",13:13:01,2,6,"ShapeMatching",5,1,3,"S7","S7",1,1,1064,1
"Matching_Run1",35,1,"07-22-2015",13:13:01,2,6,"ShapeMatching",6,2,2,"S8","S9",1,2,1064,1
"Matching_Run1",35,1,"07-22-2015",13:13:01,3,1,"NumberMatching",1,1,1,"N1","D1_1",1,1,1094,1
"Matching_Run1",35,1,"07-22-2015",13:13:01,3,1,"NumberMatching",2,1,3,"D8_2","N8",0,2,969,1
"Matching_Run1",35,1,"07-22-2015",13:13:01,3,1,"NumberMatching",3,1,2,"N3","D3_1",1,1,1666,1
"Matching_Run1",35,1,"07-22-2015",13:13:01,3,1,"NumberMatching",4,2,1,"D2_1","N5",1,2,1294,1
"Matching_Run1",35,1,"07-22-2015",13:13:01,3,1,"NumberMatching",5,1,2,"N9","D9_1",1,1,3249,1
"Matching_Run1",35,1,"07-22-2015",13:13:01,3,1,"NumberMatching",6,2,3,"N9","D7_2",1,2,1936,1
