"ExperimentName","Subject","Session","SessionDate","SessionTime","Block","metablock","TaskType","Trial","Answer","Condition","Correct","CorrectResponse","DifferenceCorrect","LeftNumber","RightNumber","Verification","Problem.ACC","Problem.CRESP","Problem.RESP","Problem.RT","StartFixation.OnsetTime","Problem.OnsetTime","condition","Task","run"
"Arithmetic_Run1",1,1,"05-12-2015",19:22:31,1,3,"LargeProblem",1,12,"L","I",2,1,3,9,13,1,2,2,2582,20560,27094,"large","arithmetic",1
"Arithmetic_Run1",1,1,"05-12-2015",19:22:31,1,3,"LargeProblem",2,12,"L","C",1,0,4,8,12,1,1,1,2262,20560,33627,"large","arithmetic",1
"Arithmetic_Run1",1,1,"05-12-2015",19:22:31,1,3,"LargeProblem",3,13,"L","C",1,0,5,8,13,1,1,1,2719,20560,39660,"large","arithmetic",1
"Arithmetic_Run1",1,1,"05-12-2015",19:22:31,1,3,"LargeProblem",4,14,"L","C",1,0,8,6,14,1,1,1,3997,20560,45193,"large","arithmetic",1
"Arithmetic_Run1",1,1,"05-12-2015",19:22:31,1,3,"LargeProblem",5,13,"L","I",2,1,9,4,14,1,2,2,2698,20560,51226,"large","arithmetic",1
"Arithmetic_Run1",1,1,"05-12-2015",19:22:31,1,3,"LargeProblem",6,14,"L","I",2,2,9,5,16,1,2,2,2250,20560,57759,"large","arithmetic",1
"Arithmetic_Run1",1,1,"05-12-2015",19:22:31,2,6,"SmallProblem",1,5,"S","C",1,0,2,3,5,1,1,1,2008,20560,69309,"small","arithmetic",1
"Arithmetic_Run1",1,1,"05-12-2015",19:22:31,2,6,"SmallProblem",2,7,"S","I",2,2,3,4,9,1,2,2,1823,20560,75842,"small","arithmetic",1
"Arithmetic_Run1",1,1,"05-12-2015",19:22:31,2,6,"SmallProblem",3,8,"S","C",1,0,6,2,8,1,1,1,2297,20560,81375,"small","arithmetic",1
"Arithmetic_Run1",1,1,"05-12-2015",19:22:31,2,6,"SmallProblem",4,8,"S","C",1,0,5,3,8,1,1,1,1681,20560,87408,"small","arithmetic",1
"Arithmetic_Run1",1,1,"05-12-2015",19:22:31,2,6,"SmallProblem",5,10,"S","C",1,0,6,4,10,1,1,1,1642,20560,92941,"small","arithmetic",1
"Arithmetic_Run1",1,1,"05-12-2015",19:22:31,2,6,"SmallProblem",6,7,"S","I",2,1,2,5,8,1,2,2,1941,20560,99475,"small","arithmetic",1
"Arithmetic_Run1",1,1,"05-12-2015",19:22:31,3,2,"SmallProblem",1,9,"S","C",1,0,2,7,9,1,1,1,2214,20560,117524,"small","arithmetic",1
"Arithmetic_Run1",1,1,"05-12-2015",19:22:31,3,2,"SmallProblem",2,6,"S","I",2,2,4,2,8,1,2,2,1637,20560,123057,"small","arithmetic",1
"Arithmetic_Run1",1,1,"05-12-2015",19:22:31,3,2,"SmallProblem",3,9,"S","C",1,0,3,6,9,1,1,1,2154,20560,129590,"small","arithmetic",1
"Arithmetic_Run1",1,1,"05-12-2015",19:22:31,3,2,"SmallProblem",4,10,"S","I",2,1,8,2,11,1,2,2,1616,20560,135623,"small","arithmetic",1
"Arithmetic_Run1",1,1,"05-12-2015",19:22:31,3,2,"SmallProblem",5,9,"S","I",2,1,4,5,10,1,2,2,2517,20560,142140,"small","arithmetic",1
"Arithmetic_Run1",1,1,"05-12-2015",19:22:31,3,2,"SmallProblem",6,10,"S","I",2,2,7,3,12,1,2,2,1810,20560,147673,"small","arithmetic",1
"Arithmetic_Run1",1,1,"05-12-2015",19:22:31,4,5,"Plus1",1,8,"Plus1","I",2,1,7,1,9,1,2,2,1723,20560,159723,"plus1","arithmetic",1
"Arithmetic_Run1",1,1,"05-12-2015",19:22:31,4,5,"Plus1",2,6,"Plus1","I",2,2,5,1,8,1,2,2,1694,20560,165256,"plus1","arithmetic",1
"Arithmetic_Run1",1,1,"05-12-2015",19:22:31,4,5,"Plus1",3,7,"Plus1","C",1,0,6,1,7,1,1,1,1878,20560,171289,"plus1","arithmetic",1
"Arithmetic_Run1",1,1,"05-12-2015",19:22:31,4,5,"Plus1",4,9,"Plus1","I",2,2,8,1,11,1,2,2,1352,20560,177822,"plus1","arithmetic",1
"Arithmetic_Run1",1,1,"05-12-2015",19:22:31,4,5,"Plus1",5,5,"Plus1","I",2,1,4,1,6,1,2,2,1546,20560,183355,"plus1","arithmetic",1
"Arithmetic_Run1",1,1,"05-12-2015",19:22:31,4,5,"Plus1",6,4,"Plus1","C",1,0,3,1,4,1,1,1,2183,20560,189888,"plus1","arithmetic",1
"Arithmetic_Run1",1,1,"05-12-2015",19:22:31,5,4,"LargeProblem",1,13,"L","I",2,1,6,7,14,1,2,2,3008,20560,207938,"large","arithmetic",1
"Arithmetic_Run1",1,1,"05-12-2015",19:22:31,5,4,"LargeProblem",2,11,"L","C",1,0,2,9,11,1,1,1,2460,20560,214471,"large","arithmetic",1
"Arithmetic_Run1",1,1,"05-12-2015",19:22:31,5,4,"LargeProblem",3,11,"L","I",2,2,5,6,13,1,2,2,2795,20560,220004,"large","arithmetic",1
"Arithmetic_Run1",1,1,"05-12-2015",19:22:31,5,4,"LargeProblem",4,12,"L","C",1,0,7,5,12,1,1,1,3552,20560,226037,"large","arithmetic",1
"Arithmetic_Run1",1,1,"05-12-2015",19:22:31,5,4,"LargeProblem",5,11,"L","C",1,0,7,4,11,1,1,1,2546,20560,232570,"large","arithmetic",1
"Arithmetic_Run1",1,1,"05-12-2015",19:22:31,5,4,"LargeProblem",6,11,"L","I",2,2,8,3,13,1,2,2,2061,20560,238603,"large","arithmetic",1
"Arithmetic_Run1",1,1,"05-12-2015",19:22:31,6,1,"Plus1",1,3,"Plus1","C",1,0,2,1,3,1,1,1,1777,20560,256153,"plus1","arithmetic",1
"Arithmetic_Run1",1,1,"05-12-2015",19:22:31,6,1,"Plus1",2,9,"Plus1","C",1,0,8,1,9,1,1,1,1586,20560,262686,"plus1","arithmetic",1
"Arithmetic_Run1",1,1,"05-12-2015",19:22:31,6,1,"Plus1",3,4,"Plus1","I",2,1,3,1,5,1,2,2,2882,20560,268719,"plus1","arithmetic",1
"Arithmetic_Run1",1,1,"05-12-2015",19:22:31,6,1,"Plus1",4,10,"Plus1","I",2,2,9,1,12,1,2,2,2267,20560,274252,"plus1","arithmetic",1
"Arithmetic_Run1",1,1,"05-12-2015",19:22:31,6,1,"Plus1",5,8,"Plus1","C",1,0,7,1,8,1,1,1,1455,20560,280785,"plus1","arithmetic",1
"Arithmetic_Run1",1,1,"05-12-2015",19:22:31,6,1,"Plus1",6,5,"Plus1","C",1,0,4,1,5,1,1,1,1589,20560,286319,"plus1","arithmetic",1
"Arithmetic_Run2",1,1,"05-12-2015",19:28:02,1,3,"LargeProblem",1,11,"L","C",1,0,6,5,11,1,1,1,2647,29247,35780,"large","arithmetic",2
"Arithmetic_Run2",1,1,"05-12-2015",19:28:02,1,3,"LargeProblem",2,11,"L","I",2,1,4,7,12,1,2,2,1850,29247,41813,"large","arithmetic",2
"Arithmetic_Run2",1,1,"05-12-2015",19:28:02,1,3,"LargeProblem",3,13,"L","C",1,0,4,9,13,1,1,1,1637,29247,48346,"large","arithmetic",2
"Arithmetic_Run2",1,1,"05-12-2015",19:28:02,1,3,"LargeProblem",4,12,"L","C",1,0,9,3,12,1,1,1,3186,29247,53879,"large","arithmetic",2
"Arithmetic_Run2",1,1,"05-12-2015",19:28:02,1,3,"LargeProblem",5,14,"L","I",2,1,6,8,15,1,2,2,4463,29247,59912,"large","arithmetic",2
"Arithmetic_Run2",1,1,"05-12-2015",19:28:02,1,3,"LargeProblem",6,11,"L","C",1,0,3,8,11,1,1,1,1848,29247,66445,"large","arithmetic",2
"Arithmetic_Run2",1,1,"05-12-2015",19:28:02,2,1,"Plus1",1,3,"Plus1","I",2,1,2,1,4,1,2,2,1837,29247,77995,"plus1","arithmetic",2
"Arithmetic_Run2",1,1,"05-12-2015",19:28:02,2,1,"Plus1",2,6,"Plus1","I",2,1,5,1,7,1,2,2,1440,29247,84028,"plus1","arithmetic",2
"Arithmetic_Run2",1,1,"05-12-2015",19:28:02,2,1,"Plus1",3,3,"Plus1","C",1,0,2,1,3,1,1,1,1504,29247,90561,"plus1","arithmetic",2
"Arithmetic_Run2",1,1,"05-12-2015",19:28:02,2,1,"Plus1",4,5,"Plus1","I",2,2,4,1,7,1,2,2,1143,29247,96078,"plus1","arithmetic",2
"Arithmetic_Run2",1,1,"05-12-2015",19:28:02,2,1,"Plus1",5,10,"Plus1","I",2,2,9,1,12,1,2,2,1673,29247,102111,"plus1","arithmetic",2
"Arithmetic_Run2",1,1,"05-12-2015",19:28:02,2,1,"Plus1",6,8,"Plus1","C",1,0,7,1,8,1,1,1,1392,29247,108644,"plus1","arithmetic",2
"Arithmetic_Run2",1,1,"05-12-2015",19:28:02,3,6,"SmallProblem",1,9,"S","C",1,0,5,4,9,0,1,2,1911,29247,120194,"incorrect","arithmetic",2
"Arithmetic_Run2",1,1,"05-12-2015",19:28:02,3,6,"SmallProblem",2,10,"S","C",1,0,2,8,10,1,1,1,1597,29247,126727,"small","arithmetic",2
"Arithmetic_Run2",1,1,"05-12-2015",19:28:02,3,6,"SmallProblem",3,7,"S","C",1,0,5,2,7,1,1,1,1835,29247,132760,"small","arithmetic",2
"Arithmetic_Run2",1,1,"05-12-2015",19:28:02,3,6,"SmallProblem",4,9,"S","I",2,1,7,2,10,1,2,2,2132,29247,138293,"small","arithmetic",2
"Arithmetic_Run2",1,1,"05-12-2015",19:28:02,3,6,"SmallProblem",5,9,"S","I",2,2,6,3,11,1,2,2,1501,29247,144326,"small","arithmetic",2
"Arithmetic_Run2",1,1,"05-12-2015",19:28:02,3,6,"SmallProblem",6,8,"S","I",2,1,2,6,9,1,2,2,2568,29247,149859,"small","arithmetic",2
"Arithmetic_Run2",1,1,"05-12-2015",19:28:02,4,2,"SmallProblem",1,10,"S","C",1,0,3,7,10,1,1,1,1570,29247,168409,"small","arithmetic",2
"Arithmetic_Run2",1,1,"05-12-2015",19:28:02,4,2,"SmallProblem",2,5,"S","I",2,2,3,2,7,1,2,2,2221,29247,174442,"small","arithmetic",2
"Arithmetic_Run2",1,1,"05-12-2015",19:28:02,4,2,"SmallProblem",3,10,"S","I",2,1,4,6,11,1,2,2,1899,29247,180975,"small","arithmetic",2
"Arithmetic_Run2",1,1,"05-12-2015",19:28:02,4,2,"SmallProblem",4,6,"S","C",1,0,2,4,6,1,1,1,1590,29247,186508,"small","arithmetic",2
"Arithmetic_Run2",1,1,"05-12-2015",19:28:02,4,2,"SmallProblem",5,7,"S","C",1,0,4,3,7,1,1,1,2307,29247,193041,"small","arithmetic",2
"Arithmetic_Run2",1,1,"05-12-2015",19:28:02,4,2,"SmallProblem",6,8,"S","I",2,2,3,5,10,1,2,2,3089,29247,199074,"small","arithmetic",2
"Arithmetic_Run2",1,1,"05-12-2015",19:28:02,5,5,"Plus1",1,9,"Plus1","I",2,2,8,1,11,1,2,2,1477,29247,210624,"plus1","arithmetic",2
"Arithmetic_Run2",1,1,"05-12-2015",19:28:02,5,5,"Plus1",2,10,"Plus1","C",1,0,9,1,10,1,1,1,1958,29247,217157,"plus1","arithmetic",2
"Arithmetic_Run2",1,1,"05-12-2015",19:28:02,5,5,"Plus1",3,7,"Plus1","I",2,1,6,1,8,1,2,2,1954,29247,223190,"plus1","arithmetic",2
"Arithmetic_Run2",1,1,"05-12-2015",19:28:02,5,5,"Plus1",4,7,"Plus1","C",1,0,6,1,7,1,1,1,1578,29247,228723,"plus1","arithmetic",2
"Arithmetic_Run2",1,1,"05-12-2015",19:28:02,5,5,"Plus1",5,4,"Plus1","C",1,0,3,1,4,1,1,1,2703,29247,234740,"plus1","arithmetic",2
"Arithmetic_Run2",1,1,"05-12-2015",19:28:02,5,5,"Plus1",6,6,"Plus1","C",1,0,5,1,6,1,1,1,1290,29247,240273,"plus1","arithmetic",2
"Arithmetic_Run2",1,1,"05-12-2015",19:28:02,6,4,"LargeProblem",1,14,"L","C",1,0,5,9,14,1,1,1,3092,29247,258823,"large","arithmetic",2
"Arithmetic_Run2",1,1,"05-12-2015",19:28:02,6,4,"LargeProblem",2,11,"L","I",2,2,9,2,13,1,2,2,2606,29247,264856,"large","arithmetic",2
"Arithmetic_Run2",1,1,"05-12-2015",19:28:02,6,4,"LargeProblem",3,13,"L","I",2,2,8,5,15,1,2,2,2198,29247,270389,"large","arithmetic",2
"Arithmetic_Run2",1,1,"05-12-2015",19:28:02,6,4,"LargeProblem",4,13,"L","C",1,0,7,6,13,1,1,1,2105,29247,276922,"large","arithmetic",2
"Arithmetic_Run2",1,1,"05-12-2015",19:28:02,6,4,"LargeProblem",5,12,"L","I",2,1,8,4,13,1,2,2,4012,29247,282955,"large","arithmetic",2
"Arithmetic_Run2",1,1,"05-12-2015",19:28:02,6,4,"LargeProblem",6,12,"L","I",2,2,5,7,14,1,2,2,3022,29247,288488,"large","arithmetic",2
"Arithmetic_Run1",2,1,"05-13-2015",19:38:30,1,2,"SmallProblem",1,9,"S","I",2,1,4,5,10,1,2,2,3420,47251,53784,"small","arithmetic",1
"Arithmetic_Run1",2,1,"05-13-2015",19:38:30,1,2,"SmallProblem",2,6,"S","I",2,2,4,2,8,1,2,2,2622,47251,59301,"small","arithmetic",1
"Arithmetic_Run1",2,1,"05-13-2015",19:38:30,1,2,"SmallProblem",3,10,"S","C",1,0,6,4,10,1,1,1,2215,47251,65334,"small","arithmetic",1
"Arithmetic_Run1",2,1,"05-13-2015",19:38:30,1,2,"SmallProblem",4,8,"S","C",1,0,6,2,8,1,1,1,2381,47251,71867,"small","arithmetic",1
"Arithmetic_Run1",2,1,"05-13-2015",19:38:30,1,2,"SmallProblem",5,10,"S","I",2,1,8,2,11,1,2,2,3521,47251,77884,"small","arithmetic",1
"Arithmetic_Run1",2,1,"05-13-2015",19:38:30,1,2,"SmallProblem",6,8,"S","C",1,0,5,3,8,1,1,1,2552,47251,83417,"small","arithmetic",1
"Arithmetic_Run1",2,1,"05-13-2015",19:38:30,2,1,"Plus1",1,4,"Plus1","C",1,0,3,1,4,1,1,1,3128,47251,95966,"plus1","arithmetic",1
"Arithmetic_Run1",2,1,"05-13-2015",19:38:30,2,1,"Plus1",2,3,"Plus1","C",1,0,2,1,3,1,1,1,1696,47251,101483,"plus1","arithmetic",1
"Arithmetic_Run1",2,1,"05-13-2015",19:38:30,2,1,"Plus1",3,4,"Plus1","I",2,1,3,1,5,1,2,2,1983,47251,108016,"plus1","arithmetic",1
"Arithmetic_Run1",2,1,"05-13-2015",19:38:30,2,1,"Plus1",4,5,"Plus1","I",2,1,4,1,6,1,2,2,2350,47251,114049,"plus1","arithmetic",1
"Arithmetic_Run1",2,1,"05-13-2015",19:38:30,2,1,"Plus1",5,7,"Plus1","C",1,0,6,1,7,1,1,1,2517,47251,120582,"plus1","arithmetic",1
"Arithmetic_Run1",2,1,"05-13-2015",19:38:30,2,1,"Plus1",6,6,"Plus1","I",2,2,5,1,8,1,2,2,2036,47251,126616,"plus1","arithmetic",1
"Arithmetic_Run1",2,1,"05-13-2015",19:38:30,3,4,"LargeProblem",1,12,"L","I",2,1,3,9,13,0,2,1,3319,47251,138165,"incorrect","arithmetic",1
"Arithmetic_Run1",2,1,"05-13-2015",19:38:30,3,4,"LargeProblem",2,13,"L","C",1,0,5,8,13,1,1,1,4526,47251,144698,"large","arithmetic",1
"Arithmetic_Run1",2,1,"05-13-2015",19:38:30,3,4,"LargeProblem",3,11,"L","C",1,0,2,9,11,1,1,1,3217,47251,150231,"large","arithmetic",1
"Arithmetic_Run1",2,1,"05-13-2015",19:38:30,3,4,"LargeProblem",4,11,"L","C",1,0,7,4,11,1,1,1,3417,47251,156248,"large","arithmetic",1
"Arithmetic_Run1",2,1,"05-13-2015",19:38:30,3,4,"LargeProblem",5,14,"L","C",1,0,8,6,14,1,1,1,3510,47251,162781,"large","arithmetic",1
"Arithmetic_Run1",2,1,"05-13-2015",19:38:30,3,4,"LargeProblem",6,14,"L","I",2,2,9,5,16,1,2,2,3247,47251,168814,"large","arithmetic",1
"Arithmetic_Run1",2,1,"05-13-2015",19:38:30,4,5,"Plus1",1,8,"Plus1","C",1,0,7,1,8,1,1,1,2613,47251,186364,"plus1","arithmetic",1
"Arithmetic_Run1",2,1,"05-13-2015",19:38:30,4,5,"Plus1",2,5,"Plus1","C",1,0,4,1,5,1,1,1,2624,47251,192397,"plus1","arithmetic",1
"Arithmetic_Run1",2,1,"05-13-2015",19:38:30,4,5,"Plus1",3,10,"Plus1","I",2,2,9,1,12,1,2,2,2270,47251,198930,"plus1","arithmetic",1
"Arithmetic_Run1",2,1,"05-13-2015",19:38:30,4,5,"Plus1",4,9,"Plus1","I",2,2,8,1,11,1,2,2,2428,47251,204463,"plus1","arithmetic",1
"Arithmetic_Run1",2,1,"05-13-2015",19:38:30,4,5,"Plus1",5,8,"Plus1","I",2,1,7,1,9,1,2,2,2664,47251,210996,"plus1","arithmetic",1
"Arithmetic_Run1",2,1,"05-13-2015",19:38:30,4,5,"Plus1",6,9,"Plus1","C",1,0,8,1,9,1,1,1,2632,47251,216529,"plus1","arithmetic",1
"Arithmetic_Run1",2,1,"05-13-2015",19:38:30,5,6,"SmallProblem",1,5,"S","C",1,0,2,3,5,1,1,1,2168,47251,234562,"small","arithmetic",1
"Arithmetic_Run1",2,1,"05-13-2015",19:38:30,5,6,"SmallProblem",2,7,"S","I",2,1,2,5,8,1,2,2,2856,47251,241095,"small","arithmetic",1
"Arithmetic_Run1",2,1,"05-13-2015",19:38:30,5,6,"SmallProblem",3,9,"S","C",1,0,2,7,9,1,1,1,2440,47251,246628,"small","arithmetic",1
"Arithmetic_Run1",2,1,"05-13-2015",19:38:30,5,6,"SmallProblem",4,10,"S","I",2,2,7,3,12,1,2,2,3837,47251,252661,"small","arithmetic",1
"Arithmetic_Run1",2,1,"05-13-2015",19:38:30,5,6,"SmallProblem",5,7,"S","I",2,2,3,4,9,1,2,2,4077,47251,258195,"small","arithmetic",1
"Arithmetic_Run1",2,1,"05-13-2015",19:38:30,5,6,"SmallProblem",6,9,"S","C",1,0,3,6,9,1,1,1,2948,47251,264228,"small","arithmetic",1
"Arithmetic_Run1",2,1,"05-13-2015",19:38:30,6,3,"LargeProblem",1,11,"L","I",2,2,5,6,13,1,2,2,4818,47251,282777,"large","arithmetic",1
"Arithmetic_Run1",2,1,"05-13-2015",19:38:30,6,3,"LargeProblem",2,11,"L","I",2,2,8,3,13,1,2,2,2769,47251,288810,"large","arithmetic",1
"Arithmetic_Run1",2,1,"05-13-2015",19:38:30,6,3,"LargeProblem",3,13,"L","I",2,1,6,7,14,1,2,2,5076,47251,294327,"large","arithmetic",1
"Arithmetic_Run1",2,1,"05-13-2015",19:38:30,6,3,"LargeProblem",4,13,"L","I",2,1,9,4,14,0,NA,NA,0,47251,300860,"incorrect","arithmetic",1
"Arithmetic_Run1",2,1,"05-13-2015",19:38:30,6,3,"LargeProblem",5,12,"L","C",1,0,4,8,12,0,1,2,79,47251,306893,"incorrect","arithmetic",1
"Arithmetic_Run1",2,1,"05-13-2015",19:38:30,6,3,"LargeProblem",6,12,"L","C",1,0,7,5,12,1,1,1,40,47251,312426,"large","arithmetic",1
"Arithmetic_Run2",2,1,"05-13-2015",19:44:44,1,2,"SmallProblem",1,8,"S","I",2,1,2,6,9,1,2,2,2281,19107,25640,"small","arithmetic",2
"Arithmetic_Run2",2,1,"05-13-2015",19:44:44,1,2,"SmallProblem",2,5,"S","I",2,2,3,2,7,1,2,2,2177,19107,31173,"small","arithmetic",2
"Arithmetic_Run2",2,1,"05-13-2015",19:44:44,1,2,"SmallProblem",3,7,"S","C",1,0,4,3,7,1,1,1,2380,19107,37190,"small","arithmetic",2
"Arithmetic_Run2",2,1,"05-13-2015",19:44:44,1,2,"SmallProblem",4,6,"S","C",1,0,2,4,6,1,1,1,3159,19107,43723,"small","arithmetic",2
"Arithmetic_Run2",2,1,"05-13-2015",19:44:44,1,2,"SmallProblem",5,9,"S","I",2,1,7,2,10,0,NA,NA,0,19107,49756,"incorrect","arithmetic",2
"Arithmetic_Run2",2,1,"05-13-2015",19:44:44,1,2,"SmallProblem",6,10,"S","C",1,0,3,7,10,0,1,2,667,19107,55289,"incorrect","arithmetic",2
"Arithmetic_Run2",2,1,"05-13-2015",19:44:44,2,5,"Plus1",1,8,"Plus1","C",1,0,7,1,8,1,1,1,3212,19107,67839,"plus1","arithmetic",2
"Arithmetic_Run2",2,1,"05-13-2015",19:44:44,2,5,"Plus1",2,5,"Plus1","I",2,2,4,1,7,1,2,2,4496,19107,73872,"plus1","arithmetic",2
"Arithmetic_Run2",2,1,"05-13-2015",19:44:44,2,5,"Plus1",3,9,"Plus1","I",2,2,8,1,11,1,2,2,4140,19107,80405,"plus1","arithmetic",2
"Arithmetic_Run2",2,1,"05-13-2015",19:44:44,2,5,"Plus1",4,7,"Plus1","C",1,0,6,1,7,1,1,1,2794,19107,85938,"plus1","arithmetic",2
"Arithmetic_Run2",2,1,"05-13-2015",19:44:44,2,5,"Plus1",5,4,"Plus1","C",1,0,3,1,4,1,1,1,2093,19107,91971,"plus1","arithmetic",2
"Arithmetic_Run2",2,1,"05-13-2015",19:44:44,2,5,"Plus1",6,10,"Plus1","I",2,2,9,1,12,1,2,2,4069,19107,98505,"plus1","arithmetic",2
"Arithmetic_Run2",2,1,"05-13-2015",19:44:44,3,1,"Plus1",1,6,"Plus1","C",1,0,5,1,6,1,1,1,3102,19107,116054,"plus1","arithmetic",2
"Arithmetic_Run2",2,1,"05-13-2015",19:44:44,3,1,"Plus1",2,3,"Plus1","I",2,1,2,1,4,1,2,2,2411,19107,122087,"plus1","arithmetic",2
"Arithmetic_Run2",2,1,"05-13-2015",19:44:44,3,1,"Plus1",3,7,"Plus1","I",2,1,6,1,8,1,2,2,3859,19107,128620,"plus1","arithmetic",2
"Arithmetic_Run2",2,1,"05-13-2015",19:44:44,3,1,"Plus1",4,10,"Plus1","C",1,0,9,1,10,0,1,2,2992,19107,134153,"incorrect","arithmetic",2
"Arithmetic_Run2",2,1,"05-13-2015",19:44:44,3,1,"Plus1",5,6,"Plus1","I",2,1,5,1,7,1,2,2,3109,19107,140670,"plus1","arithmetic",2
"Arithmetic_Run2",2,1,"05-13-2015",19:44:44,3,1,"Plus1",6,3,"Plus1","C",1,0,2,1,3,0,1,2,3076,19107,146203,"incorrect","arithmetic",2
"Arithmetic_Run2",2,1,"05-13-2015",19:44:44,4,4,"LargeProblem",1,11,"L","I",2,1,4,7,12,0,NA,NA,0,19107,158253,"incorrect","arithmetic",2
"Arithmetic_Run2",2,1,"05-13-2015",19:44:44,4,4,"LargeProblem",2,11,"L","C",1,0,6,5,11,1,1,1,854,19107,163786,"large","arithmetic",2
"Arithmetic_Run2",2,1,"05-13-2015",19:44:44,4,4,"LargeProblem",3,12,"L","I",2,1,8,4,13,1,2,2,5321,19107,169819,"large","arithmetic",2
"Arithmetic_Run2",2,1,"05-13-2015",19:44:44,4,4,"LargeProblem",4,11,"L","I",2,2,9,2,13,1,2,2,4461,19107,176352,"large","arithmetic",2
"Arithmetic_Run2",2,1,"05-13-2015",19:44:44,4,4,"LargeProblem",5,14,"L","C",1,0,5,9,14,1,1,1,6017,19107,181885,"large","arithmetic",2
"Arithmetic_Run2",2,1,"05-13-2015",19:44:44,4,4,"LargeProblem",6,13,"L","C",1,0,7,6,13,1,1,1,3936,19107,188402,"large","arithmetic",2
"Arithmetic_Run2",2,1,"05-13-2015",19:44:44,5,6,"SmallProblem",1,7,"S","C",1,0,5,2,7,1,1,1,5914,19107,206451,"small","arithmetic",2
"Arithmetic_Run2",2,1,"05-13-2015",19:44:44,5,6,"SmallProblem",2,9,"S","C",1,0,5,4,9,1,1,1,5167,19107,212984,"small","arithmetic",2
"Arithmetic_Run2",2,1,"05-13-2015",19:44:44,5,6,"SmallProblem",3,9,"S","I",2,2,6,3,11,1,2,2,2549,19107,218501,"small","arithmetic",2
"Arithmetic_Run2",2,1,"05-13-2015",19:44:44,5,6,"SmallProblem",4,8,"S","I",2,2,3,5,10,1,2,2,2722,19107,224534,"small","arithmetic",2
"Arithmetic_Run2",2,1,"05-13-2015",19:44:44,5,6,"SmallProblem",5,10,"S","C",1,0,2,8,10,0,1,2,2321,19107,231067,"incorrect","arithmetic",2
"Arithmetic_Run2",2,1,"05-13-2015",19:44:44,5,6,"SmallProblem",6,10,"S","I",2,1,4,6,11,1,2,2,3235,19107,237100,"small","arithmetic",2
"Arithmetic_Run2",2,1,"05-13-2015",19:44:44,6,3,"LargeProblem",1,13,"L","C",1,0,4,9,13,1,1,1,4744,19107,254650,"large","arithmetic",2
"Arithmetic_Run2",2,1,"05-13-2015",19:44:44,6,3,"LargeProblem",2,11,"L","C",1,0,3,8,11,0,1,2,5668,19107,260683,"incorrect","arithmetic",2
"Arithmetic_Run2",2,1,"05-13-2015",19:44:44,6,3,"LargeProblem",3,12,"L","I",2,2,5,7,14,1,2,2,5193,19107,267216,"large","arithmetic",2
"Arithmetic_Run2",2,1,"05-13-2015",19:44:44,6,3,"LargeProblem",4,12,"L","C",1,0,9,3,12,0,NA,NA,0,19107,272749,"incorrect","arithmetic",2
"Arithmetic_Run2",2,1,"05-13-2015",19:44:44,6,3,"LargeProblem",5,13,"L","I",2,2,8,5,15,0,2,1,502,19107,279282,"incorrect","arithmetic",2
"Arithmetic_Run2",2,1,"05-13-2015",19:44:44,6,3,"LargeProblem",6,14,"L","I",2,1,6,8,15,1,2,2,5314,19107,285315,"large","arithmetic",2
"Arithmetic_Run2",3,2,"05-14-2015",17:55:48,1,6,"SmallProblem",1,5,"S","I",2,2,3,2,7,1,2,2,4929,21801,28335,"small","arithmetic",2
"Arithmetic_Run2",3,2,"05-14-2015",17:55:48,1,6,"SmallProblem",2,10,"S","C",1,0,3,7,10,0,NA,NA,0,21801,34368,"incorrect","arithmetic",2
"Arithmetic_Run2",3,2,"05-14-2015",17:55:48,1,6,"SmallProblem",3,6,"S","C",1,0,2,4,6,0,1,2,1337,21801,39901,"incorrect","arithmetic",2
"Arithmetic_Run2",3,2,"05-14-2015",17:55:48,1,6,"SmallProblem",4,10,"S","C",1,0,2,8,10,1,1,1,2087,21801,46434,"small","arithmetic",2
"Arithmetic_Run2",3,2,"05-14-2015",17:55:48,1,6,"SmallProblem",5,8,"S","I",2,1,2,6,9,1,2,2,5017,21801,51967,"small","arithmetic",2
"Arithmetic_Run2",3,2,"05-14-2015",17:55:48,1,6,"SmallProblem",6,7,"S","C",1,0,4,3,7,0,NA,NA,0,21801,58500,"incorrect","arithmetic",2
"Arithmetic_Run2",3,2,"05-14-2015",17:55:48,2,2,"SmallProblem",1,9,"S","C",1,0,5,4,9,1,1,1,4818,21801,76550,"small","arithmetic",2
"Arithmetic_Run2",3,2,"05-14-2015",17:55:48,2,2,"SmallProblem",2,9,"S","I",2,2,6,3,11,1,2,2,5035,21801,83083,"small","arithmetic",2
"Arithmetic_Run2",3,2,"05-14-2015",17:55:48,2,2,"SmallProblem",3,10,"S","I",2,1,4,6,11,1,2,2,4518,21801,88616,"small","arithmetic",2
"Arithmetic_Run2",3,2,"05-14-2015",17:55:48,2,2,"SmallProblem",4,9,"S","I",2,1,7,2,10,0,2,1,1409,21801,94649,"incorrect","arithmetic",2
"Arithmetic_Run2",3,2,"05-14-2015",17:55:48,2,2,"SmallProblem",5,7,"S","C",1,0,5,2,7,0,NA,NA,0,21801,100182,"incorrect","arithmetic",2
"Arithmetic_Run2",3,2,"05-14-2015",17:55:48,2,2,"SmallProblem",6,8,"S","I",2,2,3,5,10,0,NA,NA,0,21801,106215,"incorrect","arithmetic",2
"Arithmetic_Run2",3,2,"05-14-2015",17:55:48,3,5,"Plus1",1,3,"Plus1","I",2,1,2,1,4,0,2,1,3600,21801,118765,"incorrect","arithmetic",2
"Arithmetic_Run2",3,2,"05-14-2015",17:55:48,3,5,"Plus1",2,6,"Plus1","I",2,1,5,1,7,1,2,2,2119,21801,124298,"plus1","arithmetic",2
"Arithmetic_Run2",3,2,"05-14-2015",17:55:48,3,5,"Plus1",3,7,"Plus1","C",1,0,6,1,7,1,1,1,2597,21801,130331,"plus1","arithmetic",2
"Arithmetic_Run2",3,2,"05-14-2015",17:55:48,3,5,"Plus1",4,4,"Plus1","C",1,0,3,1,4,1,1,1,3018,21801,136864,"plus1","arithmetic",2
"Arithmetic_Run2",3,2,"05-14-2015",17:55:48,3,5,"Plus1",5,10,"Plus1","C",1,0,9,1,10,1,1,1,2414,21801,142898,"plus1","arithmetic",2
"Arithmetic_Run2",3,2,"05-14-2015",17:55:48,3,5,"Plus1",6,3,"Plus1","C",1,0,2,1,3,1,1,1,4707,21801,148431,"plus1","arithmetic",2
"Arithmetic_Run2",3,2,"05-14-2015",17:55:48,4,4,"LargeProblem",1,14,"L","I",2,1,6,8,15,0,NA,NA,0,21801,166980,"incorrect","arithmetic",2
"Arithmetic_Run2",3,2,"05-14-2015",17:55:48,4,4,"LargeProblem",2,11,"L","I",2,2,9,2,13,1,2,2,5087,21801,172513,"large","arithmetic",2
"Arithmetic_Run2",3,2,"05-14-2015",17:55:48,4,4,"LargeProblem",3,14,"L","C",1,0,5,9,14,0,NA,NA,0,21801,178546,"incorrect","arithmetic",2
"Arithmetic_Run2",3,2,"05-14-2015",17:55:48,4,4,"LargeProblem",4,13,"L","I",2,2,8,5,15,0,2,1,4798,21801,185080,"incorrect","arithmetic",2
"Arithmetic_Run2",3,2,"05-14-2015",17:55:48,4,4,"LargeProblem",5,12,"L","I",2,2,5,7,14,1,2,2,2773,21801,190613,"large","arithmetic",2
"Arithmetic_Run2",3,2,"05-14-2015",17:55:48,4,4,"LargeProblem",6,11,"L","I",2,1,4,7,12,1,2,2,4883,21801,196646,"large","arithmetic",2
"Arithmetic_Run2",3,2,"05-14-2015",17:55:48,5,1,"Plus1",1,6,"Plus1","C",1,0,5,1,6,1,1,1,3383,21801,215195,"plus1","arithmetic",2
"Arithmetic_Run2",3,2,"05-14-2015",17:55:48,5,1,"Plus1",2,5,"Plus1","I",2,2,4,1,7,1,2,2,5444,21801,221228,"plus1","arithmetic",2
"Arithmetic_Run2",3,2,"05-14-2015",17:55:48,5,1,"Plus1",3,10,"Plus1","I",2,2,9,1,12,1,2,2,2977,21801,227761,"plus1","arithmetic",2
"Arithmetic_Run2",3,2,"05-14-2015",17:55:48,5,1,"Plus1",4,7,"Plus1","I",2,1,6,1,8,1,2,2,1782,21801,233295,"plus1","arithmetic",2
"Arithmetic_Run2",3,2,"05-14-2015",17:55:48,5,1,"Plus1",5,8,"Plus1","C",1,0,7,1,8,0,1,2,1903,21801,239328,"incorrect","arithmetic",2
"Arithmetic_Run2",3,2,"05-14-2015",17:55:48,5,1,"Plus1",6,9,"Plus1","I",2,2,8,1,11,1,2,2,3933,21801,244861,"plus1","arithmetic",2
"Arithmetic_Run2",3,2,"05-14-2015",17:55:48,6,3,"LargeProblem",1,11,"L","C",1,0,3,8,11,0,1,2,2539,21801,257411,"incorrect","arithmetic",2
"Arithmetic_Run2",3,2,"05-14-2015",17:55:48,6,3,"LargeProblem",2,11,"L","C",1,0,6,5,11,0,1,2,3763,21801,263444,"incorrect","arithmetic",2
"Arithmetic_Run2",3,2,"05-14-2015",17:55:48,6,3,"LargeProblem",3,13,"L","C",1,0,4,9,13,0,1,2,1197,21801,268977,"incorrect","arithmetic",2
"Arithmetic_Run2",3,2,"05-14-2015",17:55:48,6,3,"LargeProblem",4,12,"L","C",1,0,9,3,12,1,1,1,1713,21801,275510,"large","arithmetic",2
"Arithmetic_Run2",3,2,"05-14-2015",17:55:48,6,3,"LargeProblem",5,13,"L","C",1,0,7,6,13,1,1,1,5326,21801,281043,"large","arithmetic",2
"Arithmetic_Run2",3,2,"05-14-2015",17:55:48,6,3,"LargeProblem",6,12,"L","I",2,1,8,4,13,1,2,2,3646,21801,287076,"large","arithmetic",2
"Arithmetic_Run1",4,1,"05-12-2015",17:33:22,1,2,"SmallProblem",1,9,"S","I",2,1,4,5,10,1,2,2,4309,13615,20164,"small","arithmetic",1
"Arithmetic_Run1",4,1,"05-12-2015",17:33:22,1,2,"SmallProblem",2,8,"S","C",1,0,5,3,8,1,1,1,4950,13615,26698,"small","arithmetic",1
"Arithmetic_Run1",4,1,"05-12-2015",17:33:22,1,2,"SmallProblem",3,10,"S","I",2,2,7,3,12,1,2,2,2553,13615,32731,"small","arithmetic",1
"Arithmetic_Run1",4,1,"05-12-2015",17:33:22,1,2,"SmallProblem",4,10,"S","C",1,0,6,4,10,1,1,1,4767,13615,38264,"small","arithmetic",1
"Arithmetic_Run1",4,1,"05-12-2015",17:33:22,1,2,"SmallProblem",5,9,"S","C",1,0,2,7,9,1,1,1,5364,13615,44797,"small","arithmetic",1
"Arithmetic_Run1",4,1,"05-12-2015",17:33:22,1,2,"SmallProblem",6,9,"S","C",1,0,3,6,9,1,1,1,4899,13615,50830,"small","arithmetic",1
"Arithmetic_Run1",4,1,"05-12-2015",17:33:22,2,6,"SmallProblem",1,10,"S","I",2,1,8,2,11,1,2,2,4621,13615,62380,"small","arithmetic",1
"Arithmetic_Run1",4,1,"05-12-2015",17:33:22,2,6,"SmallProblem",2,5,"S","C",1,0,2,3,5,1,1,1,3752,13615,68413,"small","arithmetic",1
"Arithmetic_Run1",4,1,"05-12-2015",17:33:22,2,6,"SmallProblem",3,8,"S","C",1,0,6,2,8,1,1,1,3618,13615,73946,"small","arithmetic",1
"Arithmetic_Run1",4,1,"05-12-2015",17:33:22,2,6,"SmallProblem",4,6,"S","I",2,2,4,2,8,0,NA,NA,0,13615,80479,"incorrect","arithmetic",1
"Arithmetic_Run1",4,1,"05-12-2015",17:33:22,2,6,"SmallProblem",5,7,"S","I",2,1,2,5,8,1,2,2,4326,13615,86012,"small","arithmetic",1
"Arithmetic_Run1",4,1,"05-12-2015",17:33:22,2,6,"SmallProblem",6,7,"S","I",2,2,3,4,9,1,2,2,5430,13615,92045,"small","arithmetic",1
"Arithmetic_Run1",4,1,"05-12-2015",17:33:22,3,1,"Plus1",1,6,"Plus1","I",2,2,5,1,8,1,2,2,2626,13615,110595,"plus1","arithmetic",1
"Arithmetic_Run1",4,1,"05-12-2015",17:33:22,3,1,"Plus1",2,10,"Plus1","I",2,2,9,1,12,1,2,2,5668,13615,116628,"plus1","arithmetic",1
"Arithmetic_Run1",4,1,"05-12-2015",17:33:22,3,1,"Plus1",3,5,"Plus1","I",2,1,4,1,6,0,NA,NA,0,13615,123161,"incorrect","arithmetic",1
"Arithmetic_Run1",4,1,"05-12-2015",17:33:22,3,1,"Plus1",4,8,"Plus1","C",1,0,7,1,8,0,NA,NA,0,13615,128694,"incorrect","arithmetic",1
"Arithmetic_Run1",4,1,"05-12-2015",17:33:22,3,1,"Plus1",5,9,"Plus1","C",1,0,8,1,9,1,1,1,4042,13615,135227,"plus1","arithmetic",1
"Arithmetic_Run1",4,1,"05-12-2015",17:33:22,3,1,"Plus1",6,3,"Plus1","C",1,0,2,1,3,1,1,1,3895,13615,140761,"plus1","arithmetic",1
"Arithmetic_Run1",4,1,"05-12-2015",17:33:22,4,3,"LargeProblem",1,12,"L","C",1,0,7,5,12,1,1,1,3130,13615,152810,"large","arithmetic",1
"Arithmetic_Run1",4,1,"05-12-2015",17:33:22,4,3,"LargeProblem",2,13,"L","C",1,0,5,8,13,0,NA,NA,0,13615,158343,"incorrect","arithmetic",1
"Arithmetic_Run1",4,1,"05-12-2015",17:33:22,4,3,"LargeProblem",3,11,"L","C",1,0,2,9,11,1,1,1,5014,13615,164377,"large","arithmetic",1
"Arithmetic_Run1",4,1,"05-12-2015",17:33:22,4,3,"LargeProblem",4,13,"L","I",2,1,6,7,14,0,NA,NA,0,13615,170910,"incorrect","arithmetic",1
"Arithmetic_Run1",4,1,"05-12-2015",17:33:22,4,3,"LargeProblem",5,11,"L","C",1,0,7,4,11,1,1,1,210,13615,176443,"large","arithmetic",1
"Arithmetic_Run1",4,1,"05-12-2015",17:33:22,4,3,"LargeProblem",6,11,"L","I",2,2,8,3,13,1,2,2,5985,13615,182976,"large","arithmetic",1
"Arithmetic_Run1",4,1,"05-12-2015",17:33:22,5,4,"LargeProblem",1,11,"L","I",2,2,5,6,13,0,NA,NA,0,13615,195026,"incorrect","arithmetic",1
"Arithmetic_Run1",4,1,"05-12-2015",17:33:22,5,4,"LargeProblem",2,12,"L","I",2,1,3,9,13,0,NA,NA,0,13615,201559,"incorrect","arithmetic",1
"Arithmetic_Run1",4,1,"05-12-2015",17:33:22,5,4,"LargeProblem",3,13,"L","I",2,1,9,4,14,0,NA,NA,0,13615,207092,"incorrect","arithmetic",1
"Arithmetic_Run1",4,1,"05-12-2015",17:33:22,5,4,"LargeProblem",4,14,"L","I",2,2,9,5,16,0,NA,NA,0,13615,213125,"incorrect","arithmetic",1
"Arithmetic_Run1",4,1,"05-12-2015",17:33:22,5,4,"LargeProblem",5,12,"L","C",1,0,4,8,12,1,1,1,5394,13615,218658,"large","arithmetic",1
"Arithmetic_Run1",4,1,"05-12-2015",17:33:22,5,4,"LargeProblem",6,14,"L","C",1,0,8,6,14,0,1,2,5936,13615,225191,"incorrect","arithmetic",1
"Arithmetic_Run1",4,1,"05-12-2015",17:33:22,6,5,"Plus1",1,8,"Plus1","I",2,1,7,1,9,0,NA,NA,0,13615,243241,"incorrect","arithmetic",1
"Arithmetic_Run1",4,1,"05-12-2015",17:33:22,6,5,"Plus1",2,5,"Plus1","C",1,0,4,1,5,1,1,1,2825,13615,249774,"plus1","arithmetic",1
"Arithmetic_Run1",4,1,"05-12-2015",17:33:22,6,5,"Plus1",3,4,"Plus1","I",2,1,3,1,5,1,2,2,3266,13615,255807,"plus1","arithmetic",1
"Arithmetic_Run1",4,1,"05-12-2015",17:33:22,6,5,"Plus1",4,7,"Plus1","C",1,0,6,1,7,1,1,1,4658,13615,261340,"plus1","arithmetic",1
"Arithmetic_Run1",4,1,"05-12-2015",17:33:22,6,5,"Plus1",5,9,"Plus1","I",2,2,8,1,11,0,NA,NA,0,13615,267373,"incorrect","arithmetic",1
"Arithmetic_Run1",4,1,"05-12-2015",17:33:22,6,5,"Plus1",6,4,"Plus1","C",1,0,3,1,4,0,NA,NA,0,13615,273906,"incorrect","arithmetic",1
"Arithmetic_Run2",4,1,"05-12-2015",17:39:10,1,2,"SmallProblem",1,10,"S","C",1,0,3,7,10,1,1,1,2597,37484,44017,"small","arithmetic",2
"Arithmetic_Run2",4,1,"05-12-2015",17:39:10,1,2,"SmallProblem",2,6,"S","C",1,0,2,4,6,1,1,1,5058,37484,49551,"small","arithmetic",2
"Arithmetic_Run2",4,1,"05-12-2015",17:39:10,1,2,"SmallProblem",3,9,"S","I",2,2,6,3,11,0,NA,NA,0,37484,55600,"incorrect","arithmetic",2
"Arithmetic_Run2",4,1,"05-12-2015",17:39:10,1,2,"SmallProblem",4,7,"S","C",1,0,4,3,7,0,1,2,5564,37484,62133,"incorrect","arithmetic",2
"Arithmetic_Run2",4,1,"05-12-2015",17:39:10,1,2,"SmallProblem",5,9,"S","I",2,1,7,2,10,1,2,2,3374,37484,68167,"small","arithmetic",2
"Arithmetic_Run2",4,1,"05-12-2015",17:39:10,1,2,"SmallProblem",6,10,"S","C",1,0,2,8,10,1,1,1,3839,37484,74700,"small","arithmetic",2
"Arithmetic_Run2",4,1,"05-12-2015",17:39:10,2,4,"LargeProblem",1,13,"L","C",1,0,4,9,13,0,NA,NA,0,37484,86249,"incorrect","arithmetic",2
"Arithmetic_Run2",4,1,"05-12-2015",17:39:10,2,4,"LargeProblem",2,11,"L","C",1,0,3,8,11,0,NA,NA,0,37484,92283,"incorrect","arithmetic",2
"Arithmetic_Run2",4,1,"05-12-2015",17:39:10,2,4,"LargeProblem",3,11,"L","C",1,0,6,5,11,1,1,1,4237,37484,98816,"large","arithmetic",2
"Arithmetic_Run2",4,1,"05-12-2015",17:39:10,2,4,"LargeProblem",4,12,"L","C",1,0,9,3,12,1,1,1,1745,37484,104349,"large","arithmetic",2
"Arithmetic_Run2",4,1,"05-12-2015",17:39:10,2,4,"LargeProblem",5,12,"L","I",2,1,8,4,13,1,2,2,4445,37484,110882,"large","arithmetic",2
"Arithmetic_Run2",4,1,"05-12-2015",17:39:10,2,4,"LargeProblem",6,14,"L","C",1,0,5,9,14,0,1,2,4640,37484,116415,"incorrect","arithmetic",2
"Arithmetic_Run2",4,1,"05-12-2015",17:39:10,3,6,"SmallProblem",1,8,"S","I",2,1,2,6,9,0,NA,NA,0,37484,134465,"incorrect","arithmetic",2
"Arithmetic_Run2",4,1,"05-12-2015",17:39:10,3,6,"SmallProblem",2,5,"S","I",2,2,3,2,7,1,2,2,95,37484,140998,"small","arithmetic",2
"Arithmetic_Run2",4,1,"05-12-2015",17:39:10,3,6,"SmallProblem",3,7,"S","C",1,0,5,2,7,1,1,1,4602,37484,146531,"small","arithmetic",2
"Arithmetic_Run2",4,1,"05-12-2015",17:39:10,3,6,"SmallProblem",4,9,"S","C",1,0,5,4,9,1,1,1,3474,37484,152564,"small","arithmetic",2
"Arithmetic_Run2",4,1,"05-12-2015",17:39:10,3,6,"SmallProblem",5,8,"S","I",2,2,3,5,10,0,NA,NA,0,37484,158097,"incorrect","arithmetic",2
"Arithmetic_Run2",4,1,"05-12-2015",17:39:10,3,6,"SmallProblem",6,10,"S","I",2,1,4,6,11,1,2,2,40,37484,164630,"small","arithmetic",2
"Arithmetic_Run2",4,1,"05-12-2015",17:39:10,4,5,"Plus1",1,6,"Plus1","I",2,1,5,1,7,1,2,2,5703,37484,182680,"plus1","arithmetic",2
"Arithmetic_Run2",4,1,"05-12-2015",17:39:10,4,5,"Plus1",2,5,"Plus1","I",2,2,4,1,7,0,NA,NA,0,37484,189213,"incorrect","arithmetic",2
"Arithmetic_Run2",4,1,"05-12-2015",17:39:10,4,5,"Plus1",3,7,"Plus1","I",2,1,6,1,8,0,NA,NA,0,37484,194746,"incorrect","arithmetic",2
"Arithmetic_Run2",4,1,"05-12-2015",17:39:10,4,5,"Plus1",4,7,"Plus1","C",1,0,6,1,7,1,1,1,2767,37484,200779,"plus1","arithmetic",2
"Arithmetic_Run2",4,1,"05-12-2015",17:39:10,4,5,"Plus1",5,6,"Plus1","C",1,0,5,1,6,1,1,1,3579,37484,206312,"plus1","arithmetic",2
"Arithmetic_Run2",4,1,"05-12-2015",17:39:10,4,5,"Plus1",6,3,"Plus1","C",1,0,2,1,3,0,NA,NA,0,37484,212845,"incorrect","arithmetic",2
"Arithmetic_Run2",4,1,"05-12-2015",17:39:10,5,3,"LargeProblem",1,11,"L","I",2,1,4,7,12,0,NA,NA,0,37484,230895,"incorrect","arithmetic",2
"Arithmetic_Run2",4,1,"05-12-2015",17:39:10,5,3,"LargeProblem",2,14,"L","I",2,1,6,8,15,0,NA,NA,0,37484,236428,"incorrect","arithmetic",2
"Arithmetic_Run2",4,1,"05-12-2015",17:39:10,5,3,"LargeProblem",3,13,"L","C",1,0,7,6,13,0,NA,NA,0,37484,242961,"incorrect","arithmetic",2
"Arithmetic_Run2",4,1,"05-12-2015",17:39:10,5,3,"LargeProblem",4,11,"L","I",2,2,9,2,13,0,NA,NA,0,37484,248994,"incorrect","arithmetic",2
"Arithmetic_Run2",4,1,"05-12-2015",17:39:10,5,3,"LargeProblem",5,13,"L","I",2,2,8,5,15,1,2,2,248,37484,255527,"large","arithmetic",2
"Arithmetic_Run2",4,1,"05-12-2015",17:39:10,5,3,"LargeProblem",6,12,"L","I",2,2,5,7,14,0,NA,NA,0,37484,261560,"incorrect","arithmetic",2
"Arithmetic_Run2",4,1,"05-12-2015",17:39:10,6,1,"Plus1",1,4,"Plus1","C",1,0,3,1,4,0,NA,NA,0,37484,273110,"incorrect","arithmetic",2
"Arithmetic_Run2",4,1,"05-12-2015",17:39:10,6,1,"Plus1",2,8,"Plus1","C",1,0,7,1,8,1,1,1,4275,37484,279643,"plus1","arithmetic",2
"Arithmetic_Run2",4,1,"05-12-2015",17:39:10,6,1,"Plus1",3,9,"Plus1","I",2,2,8,1,11,0,NA,NA,0,37484,285676,"incorrect","arithmetic",2
"Arithmetic_Run2",4,1,"05-12-2015",17:39:10,6,1,"Plus1",4,10,"Plus1","I",2,2,9,1,12,1,2,2,3613,37484,291210,"plus1","arithmetic",2
"Arithmetic_Run2",4,1,"05-12-2015",17:39:10,6,1,"Plus1",5,3,"Plus1","I",2,1,2,1,4,1,2,2,4005,37484,297243,"plus1","arithmetic",2
"Arithmetic_Run2",4,1,"05-12-2015",17:39:10,6,1,"Plus1",6,10,"Plus1","C",1,0,9,1,10,1,1,1,3564,37484,303776,"plus1","arithmetic",2
"Arithmetic_Run1",5,1,"05-12-2015",18:10:27,1,1,"Plus1",1,5,"Plus1","I",2,1,4,1,6,1,2,2,1695,14281,20814,"plus1","arithmetic",1
"Arithmetic_Run1",5,1,"05-12-2015",18:10:27,1,1,"Plus1",2,5,"Plus1","C",1,0,4,1,5,1,1,1,1365,14281,27347,"plus1","arithmetic",1
"Arithmetic_Run1",5,1,"05-12-2015",18:10:27,1,1,"Plus1",3,10,"Plus1","I",2,2,9,1,12,1,2,2,1538,14281,33381,"plus1","arithmetic",1
"Arithmetic_Run1",5,1,"05-12-2015",18:10:27,1,1,"Plus1",4,9,"Plus1","C",1,0,8,1,9,1,1,1,1513,14281,38914,"plus1","arithmetic",1
"Arithmetic_Run1",5,1,"05-12-2015",18:10:27,1,1,"Plus1",5,8,"Plus1","I",2,1,7,1,9,1,2,2,1376,14281,45447,"plus1","arithmetic",1
"Arithmetic_Run1",5,1,"05-12-2015",18:10:27,1,1,"Plus1",6,8,"Plus1","C",1,0,7,1,8,1,1,1,1951,14281,50980,"plus1","arithmetic",1
"Arithmetic_Run1",5,1,"05-12-2015",18:10:27,2,4,"LargeProblem",1,11,"L","I",2,2,5,6,13,1,2,2,2154,14281,63030,"large","arithmetic",1
"Arithmetic_Run1",5,1,"05-12-2015",18:10:27,2,4,"LargeProblem",2,12,"L","C",1,0,7,5,12,1,1,1,3099,14281,68563,"large","arithmetic",1
"Arithmetic_Run1",5,1,"05-12-2015",18:10:27,2,4,"LargeProblem",3,13,"L","I",2,1,6,7,14,1,2,2,1523,14281,75096,"large","arithmetic",1
"Arithmetic_Run1",5,1,"05-12-2015",18:10:27,2,4,"LargeProblem",4,11,"L","C",1,0,2,9,11,1,1,1,1281,14281,81146,"large","arithmetic",1
"Arithmetic_Run1",5,1,"05-12-2015",18:10:27,2,4,"LargeProblem",5,13,"L","C",1,0,5,8,13,1,1,1,1422,14281,87679,"large","arithmetic",1
"Arithmetic_Run1",5,1,"05-12-2015",18:10:27,2,4,"LargeProblem",6,11,"L","I",2,2,8,3,13,1,2,2,2212,14281,93212,"large","arithmetic",1
"Arithmetic_Run1",5,1,"05-12-2015",18:10:27,3,6,"SmallProblem",1,9,"S","C",1,0,2,7,9,1,1,1,1792,14281,111261,"small","arithmetic",1
"Arithmetic_Run1",5,1,"05-12-2015",18:10:27,3,6,"SmallProblem",2,10,"S","C",1,0,6,4,10,1,1,1,941,14281,116795,"small","arithmetic",1
"Arithmetic_Run1",5,1,"05-12-2015",18:10:27,3,6,"SmallProblem",3,5,"S","C",1,0,2,3,5,1,1,1,1199,14281,123328,"small","arithmetic",1
"Arithmetic_Run1",5,1,"05-12-2015",18:10:27,3,6,"SmallProblem",4,10,"S","I",2,2,7,3,12,1,2,2,1866,14281,129361,"small","arithmetic",1
"Arithmetic_Run1",5,1,"05-12-2015",18:10:27,3,6,"SmallProblem",5,10,"S","I",2,1,8,2,11,1,2,2,2156,14281,135894,"small","arithmetic",1
"Arithmetic_Run1",5,1,"05-12-2015",18:10:27,3,6,"SmallProblem",6,8,"S","C",1,0,6,2,8,1,1,1,1435,14281,141427,"small","arithmetic",1
"Arithmetic_Run1",5,1,"05-12-2015",18:10:27,4,5,"Plus1",1,9,"Plus1","I",2,2,8,1,11,1,2,2,1673,14281,159477,"plus1","arithmetic",1
"Arithmetic_Run1",5,1,"05-12-2015",18:10:27,4,5,"Plus1",2,3,"Plus1","C",1,0,2,1,3,1,1,1,974,14281,165010,"plus1","arithmetic",1
"Arithmetic_Run1",5,1,"05-12-2015",18:10:27,4,5,"Plus1",3,7,"Plus1","C",1,0,6,1,7,1,1,1,1106,14281,171543,"plus1","arithmetic",1
"Arithmetic_Run1",5,1,"05-12-2015",18:10:27,4,5,"Plus1",4,4,"Plus1","C",1,0,3,1,4,1,1,1,961,14281,177576,"plus1","arithmetic",1
"Arithmetic_Run1",5,1,"05-12-2015",18:10:27,4,5,"Plus1",5,4,"Plus1","I",2,1,3,1,5,1,2,2,1424,14281,184109,"plus1","arithmetic",1
"Arithmetic_Run1",5,1,"05-12-2015",18:10:27,4,5,"Plus1",6,6,"Plus1","I",2,2,5,1,8,1,2,2,2071,14281,189642,"plus1","arithmetic",1
"Arithmetic_Run1",5,1,"05-12-2015",18:10:27,5,2,"SmallProblem",1,7,"S","I",2,2,3,4,9,1,2,2,2162,14281,207692,"small","arithmetic",1
"Arithmetic_Run1",5,1,"05-12-2015",18:10:27,5,2,"SmallProblem",2,9,"S","C",1,0,3,6,9,1,1,1,1281,14281,213225,"small","arithmetic",1
"Arithmetic_Run1",5,1,"05-12-2015",18:10:27,5,2,"SmallProblem",3,9,"S","I",2,1,4,5,10,1,2,2,1312,14281,219758,"small","arithmetic",1
"Arithmetic_Run1",5,1,"05-12-2015",18:10:27,5,2,"SmallProblem",4,7,"S","I",2,1,2,5,8,1,2,2,1615,14281,225791,"small","arithmetic",1
"Arithmetic_Run1",5,1,"05-12-2015",18:10:27,5,2,"SmallProblem",5,6,"S","I",2,2,4,2,8,1,2,2,1778,14281,232324,"small","arithmetic",1
"Arithmetic_Run1",5,1,"05-12-2015",18:10:27,5,2,"SmallProblem",6,8,"S","C",1,0,5,3,8,1,1,1,1278,14281,238357,"small","arithmetic",1
"Arithmetic_Run1",5,1,"05-12-2015",18:10:27,6,3,"LargeProblem",1,13,"L","I",2,1,9,4,14,1,2,2,2325,14281,249907,"large","arithmetic",1
"Arithmetic_Run1",5,1,"05-12-2015",18:10:27,6,3,"LargeProblem",2,11,"L","C",1,0,7,4,11,1,1,1,1296,14281,255940,"large","arithmetic",1
"Arithmetic_Run1",5,1,"05-12-2015",18:10:27,6,3,"LargeProblem",3,12,"L","I",2,1,3,9,13,1,2,2,3404,14281,261473,"large","arithmetic",1
"Arithmetic_Run1",5,1,"05-12-2015",18:10:27,6,3,"LargeProblem",4,12,"L","C",1,0,4,8,12,1,1,1,1395,14281,268006,"large","arithmetic",1
"Arithmetic_Run1",5,1,"05-12-2015",18:10:27,6,3,"LargeProblem",5,14,"L","I",2,2,9,5,16,1,2,2,1797,14281,273540,"large","arithmetic",1
"Arithmetic_Run1",5,1,"05-12-2015",18:10:27,6,3,"LargeProblem",6,14,"L","C",1,0,8,6,14,1,1,1,1105,14281,279573,"large","arithmetic",1
"Arithmetic_Run2",5,1,"05-12-2015",18:15:46,1,5,"Plus1",1,10,"Plus1","C",1,0,9,1,10,1,1,1,1255,44810,51344,"plus1","arithmetic",2
"Arithmetic_Run2",5,1,"05-12-2015",18:15:46,1,5,"Plus1",2,7,"Plus1","I",2,1,6,1,8,1,2,2,1074,44810,57877,"plus1","arithmetic",2
"Arithmetic_Run2",5,1,"05-12-2015",18:15:46,1,5,"Plus1",3,3,"Plus1","I",2,1,2,1,4,1,2,2,1116,44810,63410,"plus1","arithmetic",2
"Arithmetic_Run2",5,1,"05-12-2015",18:15:46,1,5,"Plus1",4,10,"Plus1","I",2,2,9,1,12,1,2,2,1482,44810,69443,"plus1","arithmetic",2
"Arithmetic_Run2",5,1,"05-12-2015",18:15:46,1,5,"Plus1",5,7,"Plus1","C",1,0,6,1,7,1,1,1,1365,44810,74976,"plus1","arithmetic",2
"Arithmetic_Run2",5,1,"05-12-2015",18:15:46,1,5,"Plus1",6,3,"Plus1","C",1,0,2,1,3,1,1,1,1269,44810,81509,"plus1","arithmetic",2
"Arithmetic_Run2",5,1,"05-12-2015",18:15:46,2,3,"LargeProblem",1,14,"L","C",1,0,5,9,14,1,1,1,2674,44810,99559,"large","arithmetic",2
"Arithmetic_Run2",5,1,"05-12-2015",18:15:46,2,3,"LargeProblem",2,13,"L","I",2,2,8,5,15,1,2,2,1612,44810,106092,"large","arithmetic",2
"Arithmetic_Run2",5,1,"05-12-2015",18:15:46,2,3,"LargeProblem",3,12,"L","C",1,0,9,3,12,1,1,1,1932,44810,111625,"large","arithmetic",2
"Arithmetic_Run2",5,1,"05-12-2015",18:15:46,2,3,"LargeProblem",4,14,"L","I",2,1,6,8,15,1,2,2,1772,44810,117658,"large","arithmetic",2
"Arithmetic_Run2",5,1,"05-12-2015",18:15:46,2,3,"LargeProblem",5,13,"L","C",1,0,4,9,13,1,1,1,1269,44810,124191,"large","arithmetic",2
"Arithmetic_Run2",5,1,"05-12-2015",18:15:46,2,3,"LargeProblem",6,12,"L","I",2,1,8,4,13,1,2,2,2405,44810,129724,"large","arithmetic",2
"Arithmetic_Run2",5,1,"05-12-2015",18:15:46,3,6,"SmallProblem",1,7,"S","C",1,0,5,2,7,1,1,1,1502,44810,141774,"small","arithmetic",2
"Arithmetic_Run2",5,1,"05-12-2015",18:15:46,3,6,"SmallProblem",2,10,"S","C",1,0,2,8,10,1,1,1,1397,44810,148307,"small","arithmetic",2
"Arithmetic_Run2",5,1,"05-12-2015",18:15:46,3,6,"SmallProblem",3,7,"S","C",1,0,4,3,7,1,1,1,1194,44810,154340,"small","arithmetic",2
"Arithmetic_Run2",5,1,"05-12-2015",18:15:46,3,6,"SmallProblem",4,9,"S","I",2,1,7,2,10,1,2,2,1226,44810,159873,"small","arithmetic",2
"Arithmetic_Run2",5,1,"05-12-2015",18:15:46,3,6,"SmallProblem",5,10,"S","C",1,0,3,7,10,1,1,1,819,44810,166407,"small","arithmetic",2
"Arithmetic_Run2",5,1,"05-12-2015",18:15:46,3,6,"SmallProblem",6,6,"S","C",1,0,2,4,6,0,1,2,1088,44810,171940,"incorrect","arithmetic",2
"Arithmetic_Run2",5,1,"05-12-2015",18:15:46,4,2,"SmallProblem",1,8,"S","I",2,1,2,6,9,1,2,2,2598,44810,189989,"small","arithmetic",2
"Arithmetic_Run2",5,1,"05-12-2015",18:15:46,4,2,"SmallProblem",2,5,"S","I",2,2,3,2,7,1,2,2,1239,44810,196522,"small","arithmetic",2
"Arithmetic_Run2",5,1,"05-12-2015",18:15:46,4,2,"SmallProblem",3,9,"S","C",1,0,5,4,9,1,1,1,1160,44810,202555,"small","arithmetic",2
"Arithmetic_Run2",5,1,"05-12-2015",18:15:46,4,2,"SmallProblem",4,9,"S","I",2,2,6,3,11,1,2,2,1560,44810,208089,"small","arithmetic",2
"Arithmetic_Run2",5,1,"05-12-2015",18:15:46,4,2,"SmallProblem",5,8,"S","I",2,2,3,5,10,1,2,2,1306,44810,214122,"small","arithmetic",2
"Arithmetic_Run2",5,1,"05-12-2015",18:15:46,4,2,"SmallProblem",6,10,"S","I",2,1,4,6,11,0,2,1,513,44810,220655,"incorrect","arithmetic",2
"Arithmetic_Run2",5,1,"05-12-2015",18:15:46,5,4,"LargeProblem",1,11,"L","I",2,2,9,2,13,1,2,2,1503,44810,232204,"large","arithmetic",2
"Arithmetic_Run2",5,1,"05-12-2015",18:15:46,5,4,"LargeProblem",2,11,"L","C",1,0,3,8,11,0,1,2,2205,44810,238238,"incorrect","arithmetic",2
"Arithmetic_Run2",5,1,"05-12-2015",18:15:46,5,4,"LargeProblem",3,12,"L","I",2,2,5,7,14,1,2,2,5270,44810,243771,"large","arithmetic",2
"Arithmetic_Run2",5,1,"05-12-2015",18:15:46,5,4,"LargeProblem",4,11,"L","C",1,0,6,5,11,1,1,1,1517,44810,250304,"large","arithmetic",2
"Arithmetic_Run2",5,1,"05-12-2015",18:15:46,5,4,"LargeProblem",5,13,"L","C",1,0,7,6,13,1,1,1,1302,44810,255837,"large","arithmetic",2
"Arithmetic_Run2",5,1,"05-12-2015",18:15:46,5,4,"LargeProblem",6,11,"L","I",2,1,4,7,12,1,2,2,4520,44810,261870,"large","arithmetic",2
"Arithmetic_Run2",5,1,"05-12-2015",18:15:46,6,1,"Plus1",1,4,"Plus1","C",1,0,3,1,4,1,1,1,1450,44810,280420,"plus1","arithmetic",2
"Arithmetic_Run2",5,1,"05-12-2015",18:15:46,6,1,"Plus1",2,9,"Plus1","I",2,2,8,1,11,1,2,2,1393,44810,285953,"plus1","arithmetic",2
"Arithmetic_Run2",5,1,"05-12-2015",18:15:46,6,1,"Plus1",3,8,"Plus1","C",1,0,7,1,8,1,1,1,1175,44810,292486,"plus1","arithmetic",2
"Arithmetic_Run2",5,1,"05-12-2015",18:15:46,6,1,"Plus1",4,6,"Plus1","C",1,0,5,1,6,1,1,1,1081,44810,298519,"plus1","arithmetic",2
"Arithmetic_Run2",5,1,"05-12-2015",18:15:46,6,1,"Plus1",5,6,"Plus1","I",2,1,5,1,7,1,2,2,1154,44810,304052,"plus1","arithmetic",2
"Arithmetic_Run2",5,1,"05-12-2015",18:15:46,6,1,"Plus1",6,5,"Plus1","I",2,2,4,1,7,1,2,2,1247,44810,310085,"plus1","arithmetic",2
"Arithmetic_Run1",6,1,"05-23-2015",14:16:01,1,1,"Plus1",1,8,"Plus1","C",1,0,7,1,8,1,1,1,2325,94109,100659,"plus1","arithmetic",1
"Arithmetic_Run1",6,1,"05-23-2015",14:16:01,1,1,"Plus1",2,9,"Plus1","C",1,0,8,1,9,1,1,1,1906,94109,107192,"plus1","arithmetic",1
"Arithmetic_Run1",6,1,"05-23-2015",14:16:01,1,1,"Plus1",3,7,"Plus1","C",1,0,6,1,7,1,1,1,1687,94109,113209,"plus1","arithmetic",1
"Arithmetic_Run1",6,1,"05-23-2015",14:16:01,1,1,"Plus1",4,5,"Plus1","C",1,0,4,1,5,1,1,1,1847,94109,118742,"plus1","arithmetic",1
"Arithmetic_Run1",6,1,"05-23-2015",14:16:01,1,1,"Plus1",5,9,"Plus1","I",2,2,8,1,11,1,2,2,1473,94109,124775,"plus1","arithmetic",1
"Arithmetic_Run1",6,1,"05-23-2015",14:16:01,1,1,"Plus1",6,4,"Plus1","I",2,1,3,1,5,1,2,2,2306,94109,131308,"plus1","arithmetic",1
"Arithmetic_Run1",6,1,"05-23-2015",14:16:01,2,3,"LargeProblem",1,11,"L","I",2,2,5,6,13,1,2,2,3161,94109,142858,"large","arithmetic",1
"Arithmetic_Run1",6,1,"05-23-2015",14:16:01,2,3,"LargeProblem",2,13,"L","I",2,1,9,4,14,0,NA,NA,0,94109,148891,"incorrect","arithmetic",1
"Arithmetic_Run1",6,1,"05-23-2015",14:16:01,2,3,"LargeProblem",3,13,"L","I",2,1,6,7,14,1,2,2,3248,94109,155424,"large","arithmetic",1
"Arithmetic_Run1",6,1,"05-23-2015",14:16:01,2,3,"LargeProblem",4,14,"L","C",1,0,8,6,14,1,1,1,3499,94109,160957,"large","arithmetic",1
"Arithmetic_Run1",6,1,"05-23-2015",14:16:01,2,3,"LargeProblem",5,14,"L","I",2,2,9,5,16,1,2,2,2282,94109,166974,"large","arithmetic",1
"Arithmetic_Run1",6,1,"05-23-2015",14:16:01,2,3,"LargeProblem",6,12,"L","C",1,0,4,8,12,0,NA,NA,0,94109,173507,"incorrect","arithmetic",1
"Arithmetic_Run1",6,1,"05-23-2015",14:16:01,3,5,"Plus1",1,6,"Plus1","I",2,2,5,1,8,1,2,2,2401,94109,185056,"plus1","arithmetic",1
"Arithmetic_Run1",6,1,"05-23-2015",14:16:01,3,5,"Plus1",2,10,"Plus1","I",2,2,9,1,12,1,2,2,2085,94109,191590,"plus1","arithmetic",1
"Arithmetic_Run1",6,1,"05-23-2015",14:16:01,3,5,"Plus1",3,3,"Plus1","C",1,0,2,1,3,1,1,1,2275,94109,197623,"plus1","arithmetic",1
"Arithmetic_Run1",6,1,"05-23-2015",14:16:01,3,5,"Plus1",4,5,"Plus1","I",2,1,4,1,6,1,2,2,4723,94109,203156,"plus1","arithmetic",1
"Arithmetic_Run1",6,1,"05-23-2015",14:16:01,3,5,"Plus1",5,4,"Plus1","C",1,0,3,1,4,1,1,1,3089,94109,209189,"plus1","arithmetic",1
"Arithmetic_Run1",6,1,"05-23-2015",14:16:01,3,5,"Plus1",6,8,"Plus1","I",2,1,7,1,9,1,2,2,2944,94109,215722,"plus1","arithmetic",1
"Arithmetic_Run1",6,1,"05-23-2015",14:16:01,4,6,"SmallProblem",1,8,"S","C",1,0,5,3,8,0,NA,NA,0,94109,233272,"incorrect","arithmetic",1
"Arithmetic_Run1",6,1,"05-23-2015",14:16:01,4,6,"SmallProblem",2,8,"S","C",1,0,6,2,8,0,1,2,3986,94109,239805,"incorrect","arithmetic",1
"Arithmetic_Run1",6,1,"05-23-2015",14:16:01,4,6,"SmallProblem",3,10,"S","I",2,1,8,2,11,1,2,2,1841,94109,245838,"small","arithmetic",1
"Arithmetic_Run1",6,1,"05-23-2015",14:16:01,4,6,"SmallProblem",4,6,"S","I",2,2,4,2,8,0,2,1,1216,94109,251371,"incorrect","arithmetic",1
"Arithmetic_Run1",6,1,"05-23-2015",14:16:01,4,6,"SmallProblem",5,10,"S","C",1,0,6,4,10,0,NA,NA,0,94109,257904,"incorrect","arithmetic",1
"Arithmetic_Run1",6,1,"05-23-2015",14:16:01,4,6,"SmallProblem",6,9,"S","C",1,0,3,6,9,0,NA,NA,0,94109,263937,"incorrect","arithmetic",1
"Arithmetic_Run1",6,1,"05-23-2015",14:16:01,5,2,"SmallProblem",1,7,"S","I",2,2,3,4,9,1,2,2,2139,94109,281487,"small","arithmetic",1
"Arithmetic_Run1",6,1,"05-23-2015",14:16:01,5,2,"SmallProblem",2,7,"S","I",2,1,2,5,8,1,2,2,3239,94109,287520,"small","arithmetic",1
"Arithmetic_Run1",6,1,"05-23-2015",14:16:01,5,2,"SmallProblem",3,9,"S","I",2,1,4,5,10,0,2,1,4021,94109,293053,"incorrect","arithmetic",1
"Arithmetic_Run1",6,1,"05-23-2015",14:16:01,5,2,"SmallProblem",4,10,"S","I",2,2,7,3,12,1,2,2,3314,94109,299586,"small","arithmetic",1
"Arithmetic_Run1",6,1,"05-23-2015",14:16:01,5,2,"SmallProblem",5,9,"S","C",1,0,2,7,9,0,1,2,2385,94109,305619,"incorrect","arithmetic",1
"Arithmetic_Run1",6,1,"05-23-2015",14:16:01,5,2,"SmallProblem",6,5,"S","C",1,0,2,3,5,1,1,1,3293,94109,312136,"small","arithmetic",1
"Arithmetic_Run1",6,1,"05-23-2015",14:16:01,6,4,"LargeProblem",1,13,"L","C",1,0,5,8,13,0,1,2,2113,94109,323685,"incorrect","arithmetic",1
"Arithmetic_Run1",6,1,"05-23-2015",14:16:01,6,4,"LargeProblem",2,11,"L","C",1,0,7,4,11,0,NA,NA,0,94109,330219,"incorrect","arithmetic",1
"Arithmetic_Run1",6,1,"05-23-2015",14:16:01,6,4,"LargeProblem",3,12,"L","C",1,0,7,5,12,0,1,2,700,94109,335752,"incorrect","arithmetic",1
"Arithmetic_Run1",6,1,"05-23-2015",14:16:01,6,4,"LargeProblem",4,11,"L","I",2,2,8,3,13,0,NA,NA,0,94109,341785,"incorrect","arithmetic",1
"Arithmetic_Run1",6,1,"05-23-2015",14:16:01,6,4,"LargeProblem",5,11,"L","C",1,0,2,9,11,0,1,2,589,94109,348318,"incorrect","arithmetic",1
"Arithmetic_Run1",6,1,"05-23-2015",14:16:01,6,4,"LargeProblem",6,12,"L","I",2,1,3,9,13,1,2,2,4666,94109,353851,"large","arithmetic",1
"Arithmetic_Run2",6,1,"05-23-2015",14:23:24,1,6,"SmallProblem",1,7,"S","C",1,0,5,2,7,1,1,1,3071,24958,31492,"small","arithmetic",2
"Arithmetic_Run2",6,1,"05-23-2015",14:23:24,1,6,"SmallProblem",2,10,"S","C",1,0,2,8,10,1,1,1,2474,24958,38025,"small","arithmetic",2
"Arithmetic_Run2",6,1,"05-23-2015",14:23:24,1,6,"SmallProblem",3,9,"S","I",2,2,6,3,11,1,2,2,2979,24958,44058,"small","arithmetic",2
"Arithmetic_Run2",6,1,"05-23-2015",14:23:24,1,6,"SmallProblem",4,9,"S","C",1,0,5,4,9,1,1,1,3067,24958,49591,"small","arithmetic",2
"Arithmetic_Run2",6,1,"05-23-2015",14:23:24,1,6,"SmallProblem",5,7,"S","C",1,0,4,3,7,1,1,1,3993,24958,55624,"small","arithmetic",2
"Arithmetic_Run2",6,1,"05-23-2015",14:23:24,1,6,"SmallProblem",6,5,"S","I",2,2,3,2,7,0,2,1,2886,24958,61157,"incorrect","arithmetic",2
"Arithmetic_Run2",6,1,"05-23-2015",14:23:24,2,1,"Plus1",1,7,"Plus1","I",2,1,6,1,8,0,NA,NA,0,24958,79707,"incorrect","arithmetic",2
"Arithmetic_Run2",6,1,"05-23-2015",14:23:24,2,1,"Plus1",2,4,"Plus1","C",1,0,3,1,4,0,1,2,7,24958,85240,"incorrect","arithmetic",2
"Arithmetic_Run2",6,1,"05-23-2015",14:23:24,2,1,"Plus1",3,9,"Plus1","I",2,2,8,1,11,1,2,2,3953,24958,91773,"plus1","arithmetic",2
"Arithmetic_Run2",6,1,"05-23-2015",14:23:24,2,1,"Plus1",4,10,"Plus1","I",2,2,9,1,12,1,2,2,4434,24958,97806,"plus1","arithmetic",2
"Arithmetic_Run2",6,1,"05-23-2015",14:23:24,2,1,"Plus1",5,3,"Plus1","C",1,0,2,1,3,1,1,1,2876,24958,104339,"plus1","arithmetic",2
"Arithmetic_Run2",6,1,"05-23-2015",14:23:24,2,1,"Plus1",6,5,"Plus1","I",2,2,4,1,7,0,2,1,5423,24958,110372,"incorrect","arithmetic",2
"Arithmetic_Run2",6,1,"05-23-2015",14:23:24,3,2,"SmallProblem",1,10,"S","I",2,1,4,6,11,1,2,2,3096,24958,121922,"small","arithmetic",2
"Arithmetic_Run2",6,1,"05-23-2015",14:23:24,3,2,"SmallProblem",2,8,"S","I",2,2,3,5,10,1,2,2,5494,24958,127955,"small","arithmetic",2
"Arithmetic_Run2",6,1,"05-23-2015",14:23:24,3,2,"SmallProblem",3,9,"S","I",2,1,7,2,10,1,2,2,3442,24958,133488,"small","arithmetic",2
"Arithmetic_Run2",6,1,"05-23-2015",14:23:24,3,2,"SmallProblem",4,6,"S","C",1,0,2,4,6,1,1,1,4552,24958,140022,"small","arithmetic",2
"Arithmetic_Run2",6,1,"05-23-2015",14:23:24,3,2,"SmallProblem",5,8,"S","I",2,1,2,6,9,1,2,2,4128,24958,145555,"small","arithmetic",2
"Arithmetic_Run2",6,1,"05-23-2015",14:23:24,3,2,"SmallProblem",6,10,"S","C",1,0,3,7,10,1,1,1,3727,24958,152088,"small","arithmetic",2
"Arithmetic_Run2",6,1,"05-23-2015",14:23:24,4,5,"Plus1",1,6,"Plus1","I",2,1,5,1,7,0,NA,NA,0,24958,164137,"incorrect","arithmetic",2
"Arithmetic_Run2",6,1,"05-23-2015",14:23:24,4,5,"Plus1",2,10,"Plus1","C",1,0,9,1,10,0,1,2,704,24958,169671,"incorrect","arithmetic",2
"Arithmetic_Run2",6,1,"05-23-2015",14:23:24,4,5,"Plus1",3,8,"Plus1","C",1,0,7,1,8,0,NA,NA,0,24958,176204,"incorrect","arithmetic",2
"Arithmetic_Run2",6,1,"05-23-2015",14:23:24,4,5,"Plus1",4,7,"Plus1","C",1,0,6,1,7,1,1,1,268,24958,182237,"plus1","arithmetic",2
"Arithmetic_Run2",6,1,"05-23-2015",14:23:24,4,5,"Plus1",5,6,"Plus1","C",1,0,5,1,6,0,1,2,481,24958,188770,"incorrect","arithmetic",2
"Arithmetic_Run2",6,1,"05-23-2015",14:23:24,4,5,"Plus1",6,3,"Plus1","I",2,1,2,1,4,0,NA,NA,0,24958,194803,"incorrect","arithmetic",2
"Arithmetic_Run2",6,1,"05-23-2015",14:23:24,5,3,"LargeProblem",1,11,"L","I",2,2,9,2,13,1,2,2,2817,24958,212353,"large","arithmetic",2
"Arithmetic_Run2",6,1,"05-23-2015",14:23:24,5,3,"LargeProblem",2,12,"L","I",2,1,8,4,13,0,2,1,5283,24958,218386,"incorrect","arithmetic",2
"Arithmetic_Run2",6,1,"05-23-2015",14:23:24,5,3,"LargeProblem",3,11,"L","I",2,1,4,7,12,0,NA,NA,0,24958,224919,"incorrect","arithmetic",2
"Arithmetic_Run2",6,1,"05-23-2015",14:23:24,5,3,"LargeProblem",4,12,"L","I",2,2,5,7,14,0,2,1,1774,24958,230452,"incorrect","arithmetic",2
"Arithmetic_Run2",6,1,"05-23-2015",14:23:24,5,3,"LargeProblem",5,11,"L","C",1,0,3,8,11,1,1,1,2470,24958,236985,"large","arithmetic",2
"Arithmetic_Run2",6,1,"05-23-2015",14:23:24,5,3,"LargeProblem",6,11,"L","C",1,0,6,5,11,1,1,1,4834,24958,243018,"large","arithmetic",2
"Arithmetic_Run2",6,1,"05-23-2015",14:23:24,6,4,"LargeProblem",1,12,"L","C",1,0,9,3,12,1,1,1,4006,24958,254568,"large","arithmetic",2
"Arithmetic_Run2",6,1,"05-23-2015",14:23:24,6,4,"LargeProblem",2,13,"L","C",1,0,4,9,13,1,1,1,4039,24958,261101,"large","arithmetic",2
"Arithmetic_Run2",6,1,"05-23-2015",14:23:24,6,4,"LargeProblem",3,14,"L","C",1,0,5,9,14,1,1,1,2592,24958,267134,"large","arithmetic",2
"Arithmetic_Run2",6,1,"05-23-2015",14:23:24,6,4,"LargeProblem",4,13,"L","C",1,0,7,6,13,1,1,1,4714,24958,272667,"large","arithmetic",2
"Arithmetic_Run2",6,1,"05-23-2015",14:23:24,6,4,"LargeProblem",5,14,"L","I",2,1,6,8,15,0,2,1,4588,24958,279200,"incorrect","arithmetic",2
"Arithmetic_Run2",6,1,"05-23-2015",14:23:24,6,4,"LargeProblem",6,13,"L","I",2,2,8,5,15,0,NA,NA,0,24958,284734,"incorrect","arithmetic",2
"Arithmetic_Run1",7,1,"06-28-2015",11:05:36,1,2,"SmallProblem",1,9,"S","I",2,1,4,5,10,0,2,1,4897,22820,29353,"incorrect","arithmetic",1
"Arithmetic_Run1",7,1,"06-28-2015",11:05:36,1,2,"SmallProblem",2,9,"S","C",1,0,3,6,9,1,1,1,2455,22820,34886,"small","arithmetic",1
"Arithmetic_Run1",7,1,"06-28-2015",11:05:36,1,2,"SmallProblem",3,7,"S","I",2,1,2,5,8,1,2,2,4425,22820,40919,"small","arithmetic",1
"Arithmetic_Run1",7,1,"06-28-2015",11:05:36,1,2,"SmallProblem",4,10,"S","I",2,2,7,3,12,1,2,2,4077,22820,47452,"small","arithmetic",1
"Arithmetic_Run1",7,1,"06-28-2015",11:05:36,1,2,"SmallProblem",5,6,"S","I",2,2,4,2,8,0,NA,NA,0,22820,53485,"incorrect","arithmetic",1
"Arithmetic_Run1",7,1,"06-28-2015",11:05:36,1,2,"SmallProblem",6,5,"S","C",1,0,2,3,5,0,1,2,1175,22820,60019,"incorrect","arithmetic",1
"Arithmetic_Run1",7,1,"06-28-2015",11:05:36,2,6,"SmallProblem",1,10,"S","I",2,1,8,2,11,0,NA,NA,0,22820,71568,"incorrect","arithmetic",1
"Arithmetic_Run1",7,1,"06-28-2015",11:05:36,2,6,"SmallProblem",2,9,"S","C",1,0,2,7,9,0,1,2,2428,22820,77601,"incorrect","arithmetic",1
"Arithmetic_Run1",7,1,"06-28-2015",11:05:36,2,6,"SmallProblem",3,8,"S","C",1,0,5,3,8,1,1,1,289,22820,83134,"small","arithmetic",1
"Arithmetic_Run1",7,1,"06-28-2015",11:05:36,2,6,"SmallProblem",4,8,"S","C",1,0,6,2,8,0,1,2,4306,22820,89667,"incorrect","arithmetic",1
"Arithmetic_Run1",7,1,"06-28-2015",11:05:36,2,6,"SmallProblem",5,7,"S","I",2,2,3,4,9,0,NA,NA,0,22820,95200,"incorrect","arithmetic",1
"Arithmetic_Run1",7,1,"06-28-2015",11:05:36,2,6,"SmallProblem",6,10,"S","C",1,0,6,4,10,1,1,1,2450,22820,101717,"small","arithmetic",1
"Arithmetic_Run1",7,1,"06-28-2015",11:05:36,3,5,"Plus1",1,6,"Plus1","I",2,2,5,1,8,1,2,2,2543,22820,119766,"plus1","arithmetic",1
"Arithmetic_Run1",7,1,"06-28-2015",11:05:36,3,5,"Plus1",2,8,"Plus1","C",1,0,7,1,8,0,NA,NA,0,22820,126299,"incorrect","arithmetic",1
"Arithmetic_Run1",7,1,"06-28-2015",11:05:36,3,5,"Plus1",3,9,"Plus1","I",2,2,8,1,11,1,2,2,1328,22820,132332,"plus1","arithmetic",1
"Arithmetic_Run1",7,1,"06-28-2015",11:05:36,3,5,"Plus1",4,5,"Plus1","I",2,1,4,1,6,0,NA,NA,0,22820,137865,"incorrect","arithmetic",1
"Arithmetic_Run1",7,1,"06-28-2015",11:05:36,3,5,"Plus1",5,4,"Plus1","I",2,1,3,1,5,0,NA,NA,0,22820,144382,"incorrect","arithmetic",1
"Arithmetic_Run1",7,1,"06-28-2015",11:05:36,3,5,"Plus1",6,9,"Plus1","C",1,0,8,1,9,1,1,1,4721,22820,150415,"plus1","arithmetic",1
"Arithmetic_Run1",7,1,"06-28-2015",11:05:36,4,4,"LargeProblem",1,14,"L","I",2,2,9,5,16,0,NA,NA,0,22820,167964,"incorrect","arithmetic",1
"Arithmetic_Run1",7,1,"06-28-2015",11:05:36,4,4,"LargeProblem",2,12,"L","C",1,0,4,8,12,1,1,1,1437,22820,173997,"large","arithmetic",1
"Arithmetic_Run1",7,1,"06-28-2015",11:05:36,4,4,"LargeProblem",3,13,"L","C",1,0,5,8,13,1,1,1,994,22820,180530,"large","arithmetic",1
"Arithmetic_Run1",7,1,"06-28-2015",11:05:36,4,4,"LargeProblem",4,12,"L","C",1,0,7,5,12,1,1,1,1471,22820,186063,"large","arithmetic",1
"Arithmetic_Run1",7,1,"06-28-2015",11:05:36,4,4,"LargeProblem",5,11,"L","I",2,2,8,3,13,0,NA,NA,0,22820,192080,"incorrect","arithmetic",1
"Arithmetic_Run1",7,1,"06-28-2015",11:05:36,4,4,"LargeProblem",6,13,"L","I",2,1,9,4,14,0,NA,NA,0,22820,197613,"incorrect","arithmetic",1
"Arithmetic_Run1",7,1,"06-28-2015",11:05:36,5,3,"LargeProblem",1,12,"L","I",2,1,3,9,13,0,NA,NA,0,22820,216162,"incorrect","arithmetic",1
"Arithmetic_Run1",7,1,"06-28-2015",11:05:36,5,3,"LargeProblem",2,11,"L","C",1,0,7,4,11,0,1,2,5486,22820,222195,"incorrect","arithmetic",1
"Arithmetic_Run1",7,1,"06-28-2015",11:05:36,5,3,"LargeProblem",3,11,"L","C",1,0,2,9,11,1,1,1,442,22820,227728,"large","arithmetic",1
"Arithmetic_Run1",7,1,"06-28-2015",11:05:36,5,3,"LargeProblem",4,13,"L","I",2,1,6,7,14,0,NA,NA,0,22820,234262,"incorrect","arithmetic",1
"Arithmetic_Run1",7,1,"06-28-2015",11:05:36,5,3,"LargeProblem",5,11,"L","I",2,2,5,6,13,0,NA,NA,0,22820,240295,"incorrect","arithmetic",1
"Arithmetic_Run1",7,1,"06-28-2015",11:05:36,5,3,"LargeProblem",6,14,"L","C",1,0,8,6,14,1,1,1,575,22820,246828,"large","arithmetic",1
"Arithmetic_Run1",7,1,"06-28-2015",11:05:36,6,1,"Plus1",1,5,"Plus1","C",1,0,4,1,5,1,1,1,2846,22820,258377,"plus1","arithmetic",1
"Arithmetic_Run1",7,1,"06-28-2015",11:05:36,6,1,"Plus1",2,3,"Plus1","C",1,0,2,1,3,1,1,1,5162,22820,264410,"plus1","arithmetic",1
"Arithmetic_Run1",7,1,"06-28-2015",11:05:36,6,1,"Plus1",3,8,"Plus1","I",2,1,7,1,9,0,2,1,4660,22820,269927,"incorrect","arithmetic",1
"Arithmetic_Run1",7,1,"06-28-2015",11:05:36,6,1,"Plus1",4,4,"Plus1","C",1,0,3,1,4,1,1,1,3168,22820,276460,"plus1","arithmetic",1
"Arithmetic_Run1",7,1,"06-28-2015",11:05:36,6,1,"Plus1",5,7,"Plus1","C",1,0,6,1,7,1,1,1,3353,22820,281993,"plus1","arithmetic",1
"Arithmetic_Run1",7,1,"06-28-2015",11:05:36,6,1,"Plus1",6,10,"Plus1","I",2,2,9,1,12,0,2,1,4486,22820,288026,"incorrect","arithmetic",1
"Arithmetic_Run2",7,1,"06-28-2015",11:11:02,1,4,"LargeProblem",1,12,"L","I",2,1,8,4,13,1,2,2,6450,30215,36748,"large","arithmetic",2
"Arithmetic_Run2",7,1,"06-28-2015",11:11:02,1,4,"LargeProblem",2,12,"L","I",2,2,5,7,14,1,2,2,4693,30215,43281,"large","arithmetic",2
"Arithmetic_Run2",7,1,"06-28-2015",11:11:02,1,4,"LargeProblem",3,11,"L","I",2,1,4,7,12,0,NA,NA,0,30215,49314,"incorrect","arithmetic",2
"Arithmetic_Run2",7,1,"06-28-2015",11:11:02,1,4,"LargeProblem",4,12,"L","C",1,0,9,3,12,0,1,2,584,30215,54848,"incorrect","arithmetic",2
"Arithmetic_Run2",7,1,"06-28-2015",11:11:02,1,4,"LargeProblem",5,11,"L","C",1,0,3,8,11,1,1,1,4646,30215,60881,"large","arithmetic",2
"Arithmetic_Run2",7,1,"06-28-2015",11:11:02,1,4,"LargeProblem",6,14,"L","C",1,0,5,9,14,1,1,1,5588,30215,66414,"large","arithmetic",2
"Arithmetic_Run2",7,1,"06-28-2015",11:11:02,2,1,"Plus1",1,6,"Plus1","C",1,0,5,1,6,1,1,1,3430,30215,84963,"plus1","arithmetic",2
"Arithmetic_Run2",7,1,"06-28-2015",11:11:02,2,1,"Plus1",2,5,"Plus1","I",2,2,4,1,7,1,2,2,4870,30215,90496,"plus1","arithmetic",2
"Arithmetic_Run2",7,1,"06-28-2015",11:11:02,2,1,"Plus1",3,10,"Plus1","I",2,2,9,1,12,0,NA,NA,0,30215,96529,"incorrect","arithmetic",2
"Arithmetic_Run2",7,1,"06-28-2015",11:11:02,2,1,"Plus1",4,3,"Plus1","C",1,0,2,1,3,0,1,2,227,30215,103062,"incorrect","arithmetic",2
"Arithmetic_Run2",7,1,"06-28-2015",11:11:02,2,1,"Plus1",5,9,"Plus1","I",2,2,8,1,11,1,2,2,5821,30215,108595,"plus1","arithmetic",2
"Arithmetic_Run2",7,1,"06-28-2015",11:11:02,2,1,"Plus1",6,7,"Plus1","C",1,0,6,1,7,1,1,1,2952,30215,114628,"plus1","arithmetic",2
"Arithmetic_Run2",7,1,"06-28-2015",11:11:02,3,5,"Plus1",1,10,"Plus1","C",1,0,9,1,10,0,NA,NA,0,30215,127178,"incorrect","arithmetic",2
"Arithmetic_Run2",7,1,"06-28-2015",11:11:02,3,5,"Plus1",2,6,"Plus1","I",2,1,5,1,7,0,NA,NA,0,30215,132711,"incorrect","arithmetic",2
"Arithmetic_Run2",7,1,"06-28-2015",11:11:02,3,5,"Plus1",3,4,"Plus1","C",1,0,3,1,4,0,1,2,880,30215,138744,"incorrect","arithmetic",2
"Arithmetic_Run2",7,1,"06-28-2015",11:11:02,3,5,"Plus1",4,3,"Plus1","I",2,1,2,1,4,0,NA,NA,0,30215,145277,"incorrect","arithmetic",2
"Arithmetic_Run2",7,1,"06-28-2015",11:11:02,3,5,"Plus1",5,7,"Plus1","I",2,1,6,1,8,1,2,2,5816,30215,150810,"plus1","arithmetic",2
"Arithmetic_Run2",7,1,"06-28-2015",11:11:02,3,5,"Plus1",6,8,"Plus1","C",1,0,7,1,8,0,NA,NA,0,30215,157327,"incorrect","arithmetic",2
"Arithmetic_Run2",7,1,"06-28-2015",11:11:02,4,2,"SmallProblem",1,6,"S","C",1,0,2,4,6,0,NA,NA,0,30215,175376,"incorrect","arithmetic",2
"Arithmetic_Run2",7,1,"06-28-2015",11:11:02,4,2,"SmallProblem",2,10,"S","C",1,0,2,8,10,1,1,1,646,30215,180909,"small","arithmetic",2
"Arithmetic_Run2",7,1,"06-28-2015",11:11:02,4,2,"SmallProblem",3,5,"S","I",2,2,3,2,7,1,2,2,3584,30215,187442,"small","arithmetic",2
"Arithmetic_Run2",7,1,"06-28-2015",11:11:02,4,2,"SmallProblem",4,10,"S","I",2,1,4,6,11,1,2,2,1799,30215,193475,"small","arithmetic",2
"Arithmetic_Run2",7,1,"06-28-2015",11:11:02,4,2,"SmallProblem",5,7,"S","C",1,0,4,3,7,0,NA,NA,0,30215,200008,"incorrect","arithmetic",2
"Arithmetic_Run2",7,1,"06-28-2015",11:11:02,4,2,"SmallProblem",6,10,"S","C",1,0,3,7,10,0,1,2,2695,30215,206041,"incorrect","arithmetic",2
"Arithmetic_Run2",7,1,"06-28-2015",11:11:02,5,6,"SmallProblem",1,9,"S","I",2,1,7,2,10,0,2,1,4745,30215,217574,"incorrect","arithmetic",2
"Arithmetic_Run2",7,1,"06-28-2015",11:11:02,5,6,"SmallProblem",2,8,"S","I",2,2,3,5,10,0,NA,NA,0,30215,224107,"incorrect","arithmetic",2
"Arithmetic_Run2",7,1,"06-28-2015",11:11:02,5,6,"SmallProblem",3,7,"S","C",1,0,5,2,7,1,1,1,2987,30215,230124,"small","arithmetic",2
"Arithmetic_Run2",7,1,"06-28-2015",11:11:02,5,6,"SmallProblem",4,9,"S","I",2,2,6,3,11,0,NA,NA,0,30215,235657,"incorrect","arithmetic",2
"Arithmetic_Run2",7,1,"06-28-2015",11:11:02,5,6,"SmallProblem",5,9,"S","C",1,0,5,4,9,1,1,1,92,30215,241690,"small","arithmetic",2
"Arithmetic_Run2",7,1,"06-28-2015",11:11:02,5,6,"SmallProblem",6,8,"S","I",2,1,2,6,9,0,NA,NA,0,30215,247223,"incorrect","arithmetic",2
"Arithmetic_Run2",7,1,"06-28-2015",11:11:02,6,3,"LargeProblem",1,14,"L","I",2,1,6,8,15,0,NA,NA,0,30215,265772,"incorrect","arithmetic",2
"Arithmetic_Run2",7,1,"06-28-2015",11:11:02,6,3,"LargeProblem",2,13,"L","I",2,2,8,5,15,0,2,1,5740,30215,271306,"incorrect","arithmetic",2
"Arithmetic_Run2",7,1,"06-28-2015",11:11:02,6,3,"LargeProblem",3,13,"L","C",1,0,7,6,13,0,1,2,230,30215,277839,"incorrect","arithmetic",2
"Arithmetic_Run2",7,1,"06-28-2015",11:11:02,6,3,"LargeProblem",4,13,"L","C",1,0,4,9,13,0,1,2,1868,30215,283872,"incorrect","arithmetic",2
"Arithmetic_Run2",7,1,"06-28-2015",11:11:02,6,3,"LargeProblem",5,11,"L","I",2,2,9,2,13,1,2,2,1124,30215,289405,"large","arithmetic",2
"Arithmetic_Run2",7,1,"06-28-2015",11:11:02,6,3,"LargeProblem",6,11,"L","C",1,0,6,5,11,0,NA,NA,0,30215,295938,"incorrect","arithmetic",2
"Arithmetic_Run1",8,1,"05-30-2015",12:26:09,1,3,"LargeProblem",1,12,"L","C",1,0,4,8,12,1,1,1,2289,15183,21717,"large","arithmetic",1
"Arithmetic_Run1",8,1,"05-30-2015",12:26:09,1,3,"LargeProblem",2,13,"L","I",2,1,6,7,14,1,2,2,3797,15183,27250,"large","arithmetic",1
"Arithmetic_Run1",8,1,"05-30-2015",12:26:09,1,3,"LargeProblem",3,13,"L","I",2,1,9,4,14,1,2,2,4506,15183,33283,"large","arithmetic",1
"Arithmetic_Run1",8,1,"05-30-2015",12:26:09,1,3,"LargeProblem",4,12,"L","I",2,1,3,9,13,1,2,2,3478,15183,39816,"large","arithmetic",1
"Arithmetic_Run1",8,1,"05-30-2015",12:26:09,1,3,"LargeProblem",5,14,"L","I",2,2,9,5,16,1,2,2,4747,15183,45849,"large","arithmetic",1
"Arithmetic_Run1",8,1,"05-30-2015",12:26:09,1,3,"LargeProblem",6,12,"L","C",1,0,7,5,12,0,1,2,3159,15183,51366,"incorrect","arithmetic",1
"Arithmetic_Run1",8,1,"05-30-2015",12:26:09,2,1,"Plus1",1,9,"Plus1","I",2,2,8,1,11,1,2,2,4163,15183,63915,"plus1","arithmetic",1
"Arithmetic_Run1",8,1,"05-30-2015",12:26:09,2,1,"Plus1",2,8,"Plus1","C",1,0,7,1,8,1,1,1,4146,15183,69949,"plus1","arithmetic",1
"Arithmetic_Run1",8,1,"05-30-2015",12:26:09,2,1,"Plus1",3,8,"Plus1","I",2,1,7,1,9,1,2,2,2954,15183,76482,"plus1","arithmetic",1
"Arithmetic_Run1",8,1,"05-30-2015",12:26:09,2,1,"Plus1",4,9,"Plus1","C",1,0,8,1,9,1,1,1,3849,15183,82015,"plus1","arithmetic",1
"Arithmetic_Run1",8,1,"05-30-2015",12:26:09,2,1,"Plus1",5,4,"Plus1","I",2,1,3,1,5,1,2,2,3517,15183,88048,"plus1","arithmetic",1
"Arithmetic_Run1",8,1,"05-30-2015",12:26:09,2,1,"Plus1",6,10,"Plus1","I",2,2,9,1,12,1,2,2,4986,15183,94581,"plus1","arithmetic",1
"Arithmetic_Run1",8,1,"05-30-2015",12:26:09,3,4,"LargeProblem",1,11,"L","I",2,2,8,3,13,0,2,1,3541,15183,106131,"incorrect","arithmetic",1
"Arithmetic_Run1",8,1,"05-30-2015",12:26:09,3,4,"LargeProblem",2,11,"L","C",1,0,2,9,11,1,1,1,5223,15183,112664,"large","arithmetic",1
"Arithmetic_Run1",8,1,"05-30-2015",12:26:09,3,4,"LargeProblem",3,11,"L","I",2,2,5,6,13,1,2,2,5384,15183,118197,"large","arithmetic",1
"Arithmetic_Run1",8,1,"05-30-2015",12:26:09,3,4,"LargeProblem",4,14,"L","C",1,0,8,6,14,0,NA,NA,0,15183,124230,"incorrect","arithmetic",1
"Arithmetic_Run1",8,1,"05-30-2015",12:26:09,3,4,"LargeProblem",5,13,"L","C",1,0,5,8,13,1,1,1,4,15183,129764,"large","arithmetic",1
"Arithmetic_Run1",8,1,"05-30-2015",12:26:09,3,4,"LargeProblem",6,11,"L","C",1,0,7,4,11,1,1,1,6176,15183,135797,"large","arithmetic",1
"Arithmetic_Run1",8,1,"05-30-2015",12:26:09,4,5,"Plus1",1,6,"Plus1","I",2,2,5,1,8,0,NA,NA,0,15183,154346,"incorrect","arithmetic",1
"Arithmetic_Run1",8,1,"05-30-2015",12:26:09,4,5,"Plus1",2,4,"Plus1","C",1,0,3,1,4,1,1,1,4172,15183,159879,"plus1","arithmetic",1
"Arithmetic_Run1",8,1,"05-30-2015",12:26:09,4,5,"Plus1",3,5,"Plus1","I",2,1,4,1,6,1,2,2,3602,15183,165913,"plus1","arithmetic",1
"Arithmetic_Run1",8,1,"05-30-2015",12:26:09,4,5,"Plus1",4,5,"Plus1","C",1,0,4,1,5,1,1,1,2480,15183,172446,"plus1","arithmetic",1
"Arithmetic_Run1",8,1,"05-30-2015",12:26:09,4,5,"Plus1",5,3,"Plus1","C",1,0,2,1,3,1,1,1,3527,15183,178479,"plus1","arithmetic",1
"Arithmetic_Run1",8,1,"05-30-2015",12:26:09,4,5,"Plus1",6,7,"Plus1","C",1,0,6,1,7,1,1,1,2698,15183,184012,"plus1","arithmetic",1
"Arithmetic_Run1",8,1,"05-30-2015",12:26:09,5,2,"SmallProblem",1,6,"S","I",2,2,4,2,8,1,2,2,5245,15183,202562,"small","arithmetic",1
"Arithmetic_Run1",8,1,"05-30-2015",12:26:09,5,2,"SmallProblem",2,5,"S","C",1,0,2,3,5,1,1,1,2451,15183,208595,"small","arithmetic",1
"Arithmetic_Run1",8,1,"05-30-2015",12:26:09,5,2,"SmallProblem",3,9,"S","I",2,1,4,5,10,1,2,2,2179,15183,214128,"small","arithmetic",1
"Arithmetic_Run1",8,1,"05-30-2015",12:26:09,5,2,"SmallProblem",4,7,"S","I",2,1,2,5,8,1,2,2,5485,15183,220661,"small","arithmetic",1
"Arithmetic_Run1",8,1,"05-30-2015",12:26:09,5,2,"SmallProblem",5,10,"S","I",2,2,7,3,12,1,2,2,4951,15183,226194,"small","arithmetic",1
"Arithmetic_Run1",8,1,"05-30-2015",12:26:09,5,2,"SmallProblem",6,10,"S","I",2,1,8,2,11,1,2,2,1566,15183,232727,"small","arithmetic",1
"Arithmetic_Run1",8,1,"05-30-2015",12:26:09,6,6,"SmallProblem",1,9,"S","C",1,0,2,7,9,0,NA,NA,0,15183,244777,"incorrect","arithmetic",1
"Arithmetic_Run1",8,1,"05-30-2015",12:26:09,6,6,"SmallProblem",2,7,"S","I",2,2,3,4,9,1,2,2,4258,15183,250310,"small","arithmetic",1
"Arithmetic_Run1",8,1,"05-30-2015",12:26:09,6,6,"SmallProblem",3,8,"S","C",1,0,5,3,8,1,1,1,4153,15183,256843,"small","arithmetic",1
"Arithmetic_Run1",8,1,"05-30-2015",12:26:09,6,6,"SmallProblem",4,10,"S","C",1,0,6,4,10,1,1,1,1597,15183,262877,"small","arithmetic",1
"Arithmetic_Run1",8,1,"05-30-2015",12:26:09,6,6,"SmallProblem",5,8,"S","C",1,0,6,2,8,1,1,1,3361,15183,269410,"small","arithmetic",1
"Arithmetic_Run1",8,1,"05-30-2015",12:26:09,6,6,"SmallProblem",6,9,"S","C",1,0,3,6,9,1,1,1,1596,15183,275443,"small","arithmetic",1
"Arithmetic_Run2",8,1,"05-30-2015",12:31:26,1,5,"Plus1",1,4,"Plus1","C",1,0,3,1,4,1,1,1,1819,20330,26863,"plus1","arithmetic",2
"Arithmetic_Run2",8,1,"05-30-2015",12:31:26,1,5,"Plus1",2,7,"Plus1","I",2,1,6,1,8,1,2,2,2618,20330,32397,"plus1","arithmetic",2
"Arithmetic_Run2",8,1,"05-30-2015",12:31:26,1,5,"Plus1",3,6,"Plus1","C",1,0,5,1,6,1,1,1,2513,20330,38930,"plus1","arithmetic",2
"Arithmetic_Run2",8,1,"05-30-2015",12:31:26,1,5,"Plus1",4,10,"Plus1","I",2,2,9,1,12,1,2,2,3641,20330,44963,"plus1","arithmetic",2
"Arithmetic_Run2",8,1,"05-30-2015",12:31:26,1,5,"Plus1",5,5,"Plus1","I",2,2,4,1,7,1,2,2,4114,20330,51496,"plus1","arithmetic",2
"Arithmetic_Run2",8,1,"05-30-2015",12:31:26,1,5,"Plus1",6,6,"Plus1","I",2,1,5,1,7,1,2,2,3676,20330,57029,"plus1","arithmetic",2
"Arithmetic_Run2",8,1,"05-30-2015",12:31:26,2,1,"Plus1",1,8,"Plus1","C",1,0,7,1,8,1,1,1,3884,20330,75079,"plus1","arithmetic",2
"Arithmetic_Run2",8,1,"05-30-2015",12:31:26,2,1,"Plus1",2,10,"Plus1","C",1,0,9,1,10,1,1,1,2565,20330,80612,"plus1","arithmetic",2
"Arithmetic_Run2",8,1,"05-30-2015",12:31:26,2,1,"Plus1",3,9,"Plus1","I",2,2,8,1,11,1,2,2,2429,20330,86645,"plus1","arithmetic",2
"Arithmetic_Run2",8,1,"05-30-2015",12:31:26,2,1,"Plus1",4,3,"Plus1","I",2,1,2,1,4,1,2,2,5022,20330,93178,"plus1","arithmetic",2
"Arithmetic_Run2",8,1,"05-30-2015",12:31:26,2,1,"Plus1",5,3,"Plus1","C",1,0,2,1,3,1,1,1,1361,20330,99211,"plus1","arithmetic",2
"Arithmetic_Run2",8,1,"05-30-2015",12:31:26,2,1,"Plus1",6,7,"Plus1","C",1,0,6,1,7,1,1,1,1746,20330,104745,"plus1","arithmetic",2
"Arithmetic_Run2",8,1,"05-30-2015",12:31:26,3,3,"LargeProblem",1,13,"L","C",1,0,7,6,13,0,1,2,3351,20330,117294,"incorrect","arithmetic",2
"Arithmetic_Run2",8,1,"05-30-2015",12:31:26,3,3,"LargeProblem",2,11,"L","C",1,0,6,5,11,0,1,2,4268,20330,123327,"incorrect","arithmetic",2
"Arithmetic_Run2",8,1,"05-30-2015",12:31:26,3,3,"LargeProblem",3,12,"L","I",2,1,8,4,13,1,2,2,4641,20330,129861,"large","arithmetic",2
"Arithmetic_Run2",8,1,"05-30-2015",12:31:26,3,3,"LargeProblem",4,11,"L","I",2,2,9,2,13,1,2,2,1869,20330,135394,"large","arithmetic",2
"Arithmetic_Run2",8,1,"05-30-2015",12:31:26,3,3,"LargeProblem",5,11,"L","I",2,1,4,7,12,1,2,2,5982,20330,141927,"large","arithmetic",2
"Arithmetic_Run2",8,1,"05-30-2015",12:31:26,3,3,"LargeProblem",6,12,"L","I",2,2,5,7,14,1,2,2,2858,20330,147960,"large","arithmetic",2
"Arithmetic_Run2",8,1,"05-30-2015",12:31:26,4,4,"LargeProblem",1,13,"L","I",2,2,8,5,15,1,2,2,2963,20330,159510,"large","arithmetic",2
"Arithmetic_Run2",8,1,"05-30-2015",12:31:26,4,4,"LargeProblem",2,14,"L","I",2,1,6,8,15,0,2,1,3159,20330,165543,"incorrect","arithmetic",2
"Arithmetic_Run2",8,1,"05-30-2015",12:31:26,4,4,"LargeProblem",3,13,"L","C",1,0,4,9,13,0,1,2,5689,20330,171076,"incorrect","arithmetic",2
"Arithmetic_Run2",8,1,"05-30-2015",12:31:26,4,4,"LargeProblem",4,11,"L","C",1,0,3,8,11,0,1,2,4780,20330,177609,"incorrect","arithmetic",2
"Arithmetic_Run2",8,1,"05-30-2015",12:31:26,4,4,"LargeProblem",5,12,"L","C",1,0,9,3,12,0,1,2,4416,20330,183642,"incorrect","arithmetic",2
"Arithmetic_Run2",8,1,"05-30-2015",12:31:26,4,4,"LargeProblem",6,14,"L","C",1,0,5,9,14,1,1,1,4176,20330,189176,"large","arithmetic",2
"Arithmetic_Run2",8,1,"05-30-2015",12:31:26,5,6,"SmallProblem",1,7,"S","C",1,0,5,2,7,1,1,1,2577,20330,207725,"small","arithmetic",2
"Arithmetic_Run2",8,1,"05-30-2015",12:31:26,5,6,"SmallProblem",2,10,"S","C",1,0,3,7,10,0,1,2,4900,20330,213758,"incorrect","arithmetic",2
"Arithmetic_Run2",8,1,"05-30-2015",12:31:26,5,6,"SmallProblem",3,9,"S","C",1,0,5,4,9,1,1,1,2277,20330,220291,"small","arithmetic",2
"Arithmetic_Run2",8,1,"05-30-2015",12:31:26,5,6,"SmallProblem",4,8,"S","I",2,1,2,6,9,0,2,1,4087,20330,225825,"incorrect","arithmetic",2
"Arithmetic_Run2",8,1,"05-30-2015",12:31:26,5,6,"SmallProblem",5,9,"S","I",2,1,7,2,10,1,2,2,3429,20330,232358,"small","arithmetic",2
"Arithmetic_Run2",8,1,"05-30-2015",12:31:26,5,6,"SmallProblem",6,10,"S","I",2,1,4,6,11,1,2,2,4139,20330,238391,"small","arithmetic",2
"Arithmetic_Run2",8,1,"05-30-2015",12:31:26,6,2,"SmallProblem",1,5,"S","I",2,2,3,2,7,1,2,2,2704,20330,255940,"small","arithmetic",2
"Arithmetic_Run2",8,1,"05-30-2015",12:31:26,6,2,"SmallProblem",2,8,"S","I",2,2,3,5,10,0,NA,NA,0,20330,262474,"incorrect","arithmetic",2
"Arithmetic_Run2",8,1,"05-30-2015",12:31:26,6,2,"SmallProblem",3,7,"S","C",1,0,4,3,7,0,1,2,312,20330,268007,"incorrect","arithmetic",2
"Arithmetic_Run2",8,1,"05-30-2015",12:31:26,6,2,"SmallProblem",4,6,"S","C",1,0,2,4,6,1,1,1,2667,20330,274040,"small","arithmetic",2
"Arithmetic_Run2",8,1,"05-30-2015",12:31:26,6,2,"SmallProblem",5,9,"S","I",2,2,6,3,11,0,2,1,2357,20330,280573,"incorrect","arithmetic",2
"Arithmetic_Run2",8,1,"05-30-2015",12:31:26,6,2,"SmallProblem",6,10,"S","C",1,0,2,8,10,1,1,1,1842,20330,286606,"small","arithmetic",2
"Arithmetic_Run1",9,1,"06-29-2015",16:47:30,1,5,"Plus1",1,8,"Plus1","I",2,1,7,1,9,1,2,2,2169,12861,19395,"plus1","arithmetic",1
"Arithmetic_Run1",9,1,"06-29-2015",16:47:30,1,5,"Plus1",2,6,"Plus1","I",2,2,5,1,8,1,2,2,1747,12861,24944,"plus1","arithmetic",1
"Arithmetic_Run1",9,1,"06-29-2015",16:47:30,1,5,"Plus1",3,9,"Plus1","C",1,0,8,1,9,1,1,1,1696,12861,30978,"plus1","arithmetic",1
"Arithmetic_Run1",9,1,"06-29-2015",16:47:30,1,5,"Plus1",4,5,"Plus1","C",1,0,4,1,5,1,1,1,2029,12861,37527,"plus1","arithmetic",1
"Arithmetic_Run1",9,1,"06-29-2015",16:47:30,1,5,"Plus1",5,9,"Plus1","I",2,2,8,1,11,1,2,2,4073,12861,43061,"plus1","arithmetic",1
"Arithmetic_Run1",9,1,"06-29-2015",16:47:30,1,5,"Plus1",6,4,"Plus1","C",1,0,3,1,4,1,1,1,2147,12861,49094,"plus1","arithmetic",1
"Arithmetic_Run1",9,1,"06-29-2015",16:47:30,2,4,"LargeProblem",1,11,"L","I",2,2,5,6,13,1,2,2,3110,12861,67643,"large","arithmetic",1
"Arithmetic_Run1",9,1,"06-29-2015",16:47:30,2,4,"LargeProblem",2,12,"L","C",1,0,7,5,12,1,1,1,3625,12861,73176,"large","arithmetic",1
"Arithmetic_Run1",9,1,"06-29-2015",16:47:30,2,4,"LargeProblem",3,14,"L","C",1,0,8,6,14,0,1,2,1833,12861,79209,"incorrect","arithmetic",1
"Arithmetic_Run1",9,1,"06-29-2015",16:47:30,2,4,"LargeProblem",4,12,"L","I",2,1,3,9,13,0,2,1,841,12861,85742,"incorrect","arithmetic",1
"Arithmetic_Run1",9,1,"06-29-2015",16:47:30,2,4,"LargeProblem",5,12,"L","C",1,0,4,8,12,0,1,2,4028,12861,91276,"incorrect","arithmetic",1
"Arithmetic_Run1",9,1,"06-29-2015",16:47:30,2,4,"LargeProblem",6,11,"L","C",1,0,7,4,11,1,1,1,4577,12861,97809,"large","arithmetic",1
"Arithmetic_Run1",9,1,"06-29-2015",16:47:30,3,1,"Plus1",1,8,"Plus1","C",1,0,7,1,8,0,NA,NA,0,12861,115858,"incorrect","arithmetic",1
"Arithmetic_Run1",9,1,"06-29-2015",16:47:30,3,1,"Plus1",2,4,"Plus1","I",2,1,3,1,5,0,2,1,108,12861,122391,"incorrect","arithmetic",1
"Arithmetic_Run1",9,1,"06-29-2015",16:47:30,3,1,"Plus1",3,10,"Plus1","I",2,2,9,1,12,1,2,2,2296,12861,128424,"plus1","arithmetic",1
"Arithmetic_Run1",9,1,"06-29-2015",16:47:30,3,1,"Plus1",4,5,"Plus1","I",2,1,4,1,6,0,2,1,3187,12861,133958,"incorrect","arithmetic",1
"Arithmetic_Run1",9,1,"06-29-2015",16:47:30,3,1,"Plus1",5,7,"Plus1","C",1,0,6,1,7,1,1,1,2142,12861,139991,"plus1","arithmetic",1
"Arithmetic_Run1",9,1,"06-29-2015",16:47:30,3,1,"Plus1",6,3,"Plus1","C",1,0,2,1,3,1,1,1,2689,12861,145524,"plus1","arithmetic",1
"Arithmetic_Run1",9,1,"06-29-2015",16:47:30,4,3,"LargeProblem",1,14,"L","I",2,2,9,5,16,1,2,2,2202,12861,158074,"large","arithmetic",1
"Arithmetic_Run1",9,1,"06-29-2015",16:47:30,4,3,"LargeProblem",2,13,"L","I",2,1,6,7,14,1,2,2,3425,12861,163607,"large","arithmetic",1
"Arithmetic_Run1",9,1,"06-29-2015",16:47:30,4,3,"LargeProblem",3,11,"L","I",2,2,8,3,13,0,NA,NA,0,12861,169640,"incorrect","arithmetic",1
"Arithmetic_Run1",9,1,"06-29-2015",16:47:30,4,3,"LargeProblem",4,13,"L","I",2,1,9,4,14,1,2,2,1113,12861,176173,"large","arithmetic",1
"Arithmetic_Run1",9,1,"06-29-2015",16:47:30,4,3,"LargeProblem",5,13,"L","C",1,0,5,8,13,0,NA,NA,0,12861,182206,"incorrect","arithmetic",1
"Arithmetic_Run1",9,1,"06-29-2015",16:47:30,4,3,"LargeProblem",6,11,"L","C",1,0,2,9,11,0,NA,NA,0,12861,188739,"incorrect","arithmetic",1
"Arithmetic_Run1",9,1,"06-29-2015",16:47:30,5,6,"SmallProblem",1,9,"S","I",2,1,4,5,10,0,2,1,42,12861,200289,"incorrect","arithmetic",1
"Arithmetic_Run1",9,1,"06-29-2015",16:47:30,5,6,"SmallProblem",2,9,"S","C",1,0,3,6,9,0,1,2,3696,12861,206322,"incorrect","arithmetic",1
"Arithmetic_Run1",9,1,"06-29-2015",16:47:30,5,6,"SmallProblem",3,7,"S","I",2,1,2,5,8,1,2,2,5062,12861,211855,"small","arithmetic",1
"Arithmetic_Run1",9,1,"06-29-2015",16:47:30,5,6,"SmallProblem",4,10,"S","C",1,0,6,4,10,0,1,2,3293,12861,218405,"incorrect","arithmetic",1
"Arithmetic_Run1",9,1,"06-29-2015",16:47:30,5,6,"SmallProblem",5,7,"S","I",2,2,3,4,9,0,NA,NA,0,12861,224438,"incorrect","arithmetic",1
"Arithmetic_Run1",9,1,"06-29-2015",16:47:30,5,6,"SmallProblem",6,6,"S","I",2,2,4,2,8,0,NA,NA,0,12861,230971,"incorrect","arithmetic",1
"Arithmetic_Run1",9,1,"06-29-2015",16:47:30,6,2,"SmallProblem",1,10,"S","I",2,1,8,2,11,1,2,2,2932,12861,248521,"small","arithmetic",1
"Arithmetic_Run1",9,1,"06-29-2015",16:47:30,6,2,"SmallProblem",2,9,"S","C",1,0,2,7,9,0,1,2,3252,12861,255054,"incorrect","arithmetic",1
"Arithmetic_Run1",9,1,"06-29-2015",16:47:30,6,2,"SmallProblem",3,5,"S","C",1,0,2,3,5,1,1,1,2792,12861,261087,"small","arithmetic",1
"Arithmetic_Run1",9,1,"06-29-2015",16:47:30,6,2,"SmallProblem",4,10,"S","I",2,2,7,3,12,1,2,2,3508,12861,266620,"small","arithmetic",1
"Arithmetic_Run1",9,1,"06-29-2015",16:47:30,6,2,"SmallProblem",5,8,"S","C",1,0,6,2,8,0,1,2,2992,12861,273153,"incorrect","arithmetic",1
"Arithmetic_Run1",9,1,"06-29-2015",16:47:30,6,2,"SmallProblem",6,8,"S","C",1,0,5,3,8,1,1,1,570,12861,278687,"small","arithmetic",1
"Arithmetic_Run1",10,1,"06-24-2015",17:20:21,1,4,"LargeProblem",1,11,"L","C",1,0,2,9,11,1,1,1,1508,13927,20477,"large","arithmetic",1
"Arithmetic_Run1",10,1,"06-24-2015",17:20:21,1,4,"LargeProblem",2,13,"L","I",2,1,6,7,14,0,2,1,1518,13927,26510,"incorrect","arithmetic",1
"Arithmetic_Run1",10,1,"06-24-2015",17:20:21,1,4,"LargeProblem",3,14,"L","C",1,0,8,6,14,1,1,1,1463,13927,33043,"large","arithmetic",1
"Arithmetic_Run1",10,1,"06-24-2015",17:20:21,1,4,"LargeProblem",4,14,"L","I",2,2,9,5,16,0,2,1,1971,13927,38576,"incorrect","arithmetic",1
"Arithmetic_Run1",10,1,"06-24-2015",17:20:21,1,4,"LargeProblem",5,12,"L","C",1,0,7,5,12,1,1,1,972,13927,44609,"large","arithmetic",1
"Arithmetic_Run1",10,1,"06-24-2015",17:20:21,1,4,"LargeProblem",6,11,"L","C",1,0,7,4,11,1,1,1,1473,13927,50143,"large","arithmetic",1
"Arithmetic_Run1",10,1,"06-24-2015",17:20:21,2,6,"SmallProblem",1,10,"S","I",2,2,7,3,12,0,2,1,1273,13927,68692,"incorrect","arithmetic",1
"Arithmetic_Run1",10,1,"06-24-2015",17:20:21,2,6,"SmallProblem",2,7,"S","I",2,2,3,4,9,1,2,2,1872,13927,74225,"small","arithmetic",1
"Arithmetic_Run1",10,1,"06-24-2015",17:20:21,2,6,"SmallProblem",3,5,"S","C",1,0,2,3,5,1,1,1,1313,13927,80258,"small","arithmetic",1
"Arithmetic_Run1",10,1,"06-24-2015",17:20:21,2,6,"SmallProblem",4,9,"S","I",2,1,4,5,10,0,2,1,3441,13927,86792,"incorrect","arithmetic",1
"Arithmetic_Run1",10,1,"06-24-2015",17:20:21,2,6,"SmallProblem",5,6,"S","I",2,2,4,2,8,1,2,2,1418,13927,92325,"small","arithmetic",1
"Arithmetic_Run1",10,1,"06-24-2015",17:20:21,2,6,"SmallProblem",6,10,"S","I",2,1,8,2,11,1,2,2,1590,13927,98358,"small","arithmetic",1
"Arithmetic_Run1",10,1,"06-24-2015",17:20:21,3,3,"LargeProblem",1,11,"L","I",2,2,8,3,13,1,2,2,1541,13927,116907,"large","arithmetic",1
"Arithmetic_Run1",10,1,"06-24-2015",17:20:21,3,3,"LargeProblem",2,12,"L","C",1,0,4,8,12,0,1,2,2280,13927,122924,"incorrect","arithmetic",1
"Arithmetic_Run1",10,1,"06-24-2015",17:20:21,3,3,"LargeProblem",3,12,"L","I",2,1,3,9,13,0,2,1,2463,13927,128457,"incorrect","arithmetic",1
"Arithmetic_Run1",10,1,"06-24-2015",17:20:21,3,3,"LargeProblem",4,13,"L","I",2,1,9,4,14,1,2,2,1519,13927,134990,"large","arithmetic",1
"Arithmetic_Run1",10,1,"06-24-2015",17:20:21,3,3,"LargeProblem",5,13,"L","C",1,0,5,8,13,0,1,2,1834,13927,140523,"incorrect","arithmetic",1
"Arithmetic_Run1",10,1,"06-24-2015",17:20:21,3,3,"LargeProblem",6,11,"L","I",2,2,5,6,13,1,2,2,2304,13927,147057,"large","arithmetic",1
"Arithmetic_Run1",10,1,"06-24-2015",17:20:21,4,2,"SmallProblem",1,10,"S","C",1,0,6,4,10,1,1,1,895,13927,159106,"small","arithmetic",1
"Arithmetic_Run1",10,1,"06-24-2015",17:20:21,4,2,"SmallProblem",2,9,"S","C",1,0,3,6,9,1,1,1,1157,13927,164623,"small","arithmetic",1
"Arithmetic_Run1",10,1,"06-24-2015",17:20:21,4,2,"SmallProblem",3,9,"S","C",1,0,2,7,9,0,1,2,1260,13927,171156,"incorrect","arithmetic",1
"Arithmetic_Run1",10,1,"06-24-2015",17:20:21,4,2,"SmallProblem",4,8,"S","C",1,0,5,3,8,1,1,1,975,13927,177189,"small","arithmetic",1
"Arithmetic_Run1",10,1,"06-24-2015",17:20:21,4,2,"SmallProblem",5,8,"S","C",1,0,6,2,8,1,1,1,2627,13927,182722,"small","arithmetic",1
"Arithmetic_Run1",10,1,"06-24-2015",17:20:21,4,2,"SmallProblem",6,7,"S","I",2,1,2,5,8,1,2,2,1403,13927,188739,"small","arithmetic",1
"Arithmetic_Run1",10,1,"06-24-2015",17:20:21,5,5,"Plus1",1,6,"Plus1","I",2,2,5,1,8,1,2,2,1388,13927,201288,"plus1","arithmetic",1
"Arithmetic_Run1",10,1,"06-24-2015",17:20:21,5,5,"Plus1",2,4,"Plus1","C",1,0,3,1,4,1,1,1,1256,13927,207322,"plus1","arithmetic",1
"Arithmetic_Run1",10,1,"06-24-2015",17:20:21,5,5,"Plus1",3,7,"Plus1","C",1,0,6,1,7,1,1,1,1779,13927,212855,"plus1","arithmetic",1
"Arithmetic_Run1",10,1,"06-24-2015",17:20:21,5,5,"Plus1",4,3,"Plus1","C",1,0,2,1,3,1,1,1,1480,13927,219388,"plus1","arithmetic",1
"Arithmetic_Run1",10,1,"06-24-2015",17:20:21,5,5,"Plus1",5,4,"Plus1","I",2,1,3,1,5,1,2,2,1601,13927,225421,"plus1","arithmetic",1
"Arithmetic_Run1",10,1,"06-24-2015",17:20:21,5,5,"Plus1",6,8,"Plus1","I",2,1,7,1,9,1,2,2,1883,13927,231954,"plus1","arithmetic",1
"Arithmetic_Run1",10,1,"06-24-2015",17:20:21,6,1,"Plus1",1,9,"Plus1","I",2,2,8,1,11,1,2,2,2423,13927,249504,"plus1","arithmetic",1
"Arithmetic_Run1",10,1,"06-24-2015",17:20:21,6,1,"Plus1",2,8,"Plus1","C",1,0,7,1,8,1,1,1,1040,13927,255537,"plus1","arithmetic",1
"Arithmetic_Run1",10,1,"06-24-2015",17:20:21,6,1,"Plus1",3,5,"Plus1","C",1,0,4,1,5,1,1,1,823,13927,262070,"plus1","arithmetic",1
"Arithmetic_Run1",10,1,"06-24-2015",17:20:21,6,1,"Plus1",4,10,"Plus1","I",2,2,9,1,12,1,2,2,1343,13927,267603,"plus1","arithmetic",1
"Arithmetic_Run1",10,1,"06-24-2015",17:20:21,6,1,"Plus1",5,5,"Plus1","I",2,1,4,1,6,1,2,2,1787,13927,273620,"plus1","arithmetic",1
"Arithmetic_Run1",10,1,"06-24-2015",17:20:21,6,1,"Plus1",6,9,"Plus1","C",1,0,8,1,9,1,1,1,1959,13927,279153,"plus1","arithmetic",1
"Arithmetic_Run2",10,1,"06-24-2015",17:25:52,1,1,"Plus1",1,4,"Plus1","C",1,0,3,1,4,1,1,1,1907,16683,23217,"plus1","arithmetic",2
"Arithmetic_Run2",10,1,"06-24-2015",17:25:52,1,1,"Plus1",2,5,"Plus1","I",2,2,4,1,7,1,2,2,1863,16683,28750,"plus1","arithmetic",2
"Arithmetic_Run2",10,1,"06-24-2015",17:25:52,1,1,"Plus1",3,10,"Plus1","C",1,0,9,1,10,1,1,1,1008,16683,35283,"plus1","arithmetic",2
"Arithmetic_Run2",10,1,"06-24-2015",17:25:52,1,1,"Plus1",4,3,"Plus1","C",1,0,2,1,3,1,1,1,1070,16683,41316,"plus1","arithmetic",2
"Arithmetic_Run2",10,1,"06-24-2015",17:25:52,1,1,"Plus1",5,6,"Plus1","C",1,0,5,1,6,1,1,1,849,16683,47849,"plus1","arithmetic",2
"Arithmetic_Run2",10,1,"06-24-2015",17:25:52,1,1,"Plus1",6,3,"Plus1","I",2,1,2,1,4,1,2,2,1254,16683,53882,"plus1","arithmetic",2
"Arithmetic_Run2",10,1,"06-24-2015",17:25:52,2,6,"SmallProblem",1,7,"S","C",1,0,5,2,7,1,1,1,1135,16683,65432,"small","arithmetic",2
"Arithmetic_Run2",10,1,"06-24-2015",17:25:52,2,6,"SmallProblem",2,7,"S","C",1,0,4,3,7,1,1,1,1512,16683,71965,"small","arithmetic",2
"Arithmetic_Run2",10,1,"06-24-2015",17:25:52,2,6,"SmallProblem",3,6,"S","C",1,0,2,4,6,1,1,1,2221,16683,77498,"small","arithmetic",2
"Arithmetic_Run2",10,1,"06-24-2015",17:25:52,2,6,"SmallProblem",4,10,"S","I",2,1,4,6,11,1,2,2,2187,16683,83532,"small","arithmetic",2
"Arithmetic_Run2",10,1,"06-24-2015",17:25:52,2,6,"SmallProblem",5,10,"S","C",1,0,3,7,10,1,1,1,1311,16683,89065,"small","arithmetic",2
"Arithmetic_Run2",10,1,"06-24-2015",17:25:52,2,6,"SmallProblem",6,8,"S","I",2,2,3,5,10,1,2,2,1306,16683,95098,"small","arithmetic",2
"Arithmetic_Run2",10,1,"06-24-2015",17:25:52,3,5,"Plus1",1,6,"Plus1","I",2,1,5,1,7,1,2,2,1372,16683,113647,"plus1","arithmetic",2
"Arithmetic_Run2",10,1,"06-24-2015",17:25:52,3,5,"Plus1",2,10,"Plus1","I",2,2,9,1,12,1,2,2,1099,16683,119681,"plus1","arithmetic",2
"Arithmetic_Run2",10,1,"06-24-2015",17:25:52,3,5,"Plus1",3,7,"Plus1","I",2,1,6,1,8,0,NA,NA,0,16683,125214,"incorrect","arithmetic",2
"Arithmetic_Run2",10,1,"06-24-2015",17:25:52,3,5,"Plus1",4,9,"Plus1","I",2,2,8,1,11,1,2,2,1274,16683,131747,"plus1","arithmetic",2
"Arithmetic_Run2",10,1,"06-24-2015",17:25:52,3,5,"Plus1",5,7,"Plus1","C",1,0,6,1,7,1,1,1,999,16683,137780,"plus1","arithmetic",2
"Arithmetic_Run2",10,1,"06-24-2015",17:25:52,3,5,"Plus1",6,8,"Plus1","C",1,0,7,1,8,1,1,1,1205,16683,144313,"plus1","arithmetic",2
"Arithmetic_Run2",10,1,"06-24-2015",17:25:52,4,3,"LargeProblem",1,14,"L","C",1,0,5,9,14,1,1,1,3381,16683,161863,"large","arithmetic",2
"Arithmetic_Run2",10,1,"06-24-2015",17:25:52,4,3,"LargeProblem",2,14,"L","I",2,1,6,8,15,1,2,2,1895,16683,168396,"large","arithmetic",2
"Arithmetic_Run2",10,1,"06-24-2015",17:25:52,4,3,"LargeProblem",3,12,"L","I",2,1,8,4,13,1,2,2,2209,16683,173929,"large","arithmetic",2
"Arithmetic_Run2",10,1,"06-24-2015",17:25:52,4,3,"LargeProblem",4,11,"L","C",1,0,6,5,11,1,1,1,2094,16683,179946,"large","arithmetic",2
"Arithmetic_Run2",10,1,"06-24-2015",17:25:52,4,3,"LargeProblem",5,11,"L","I",2,2,9,2,13,1,2,2,1824,16683,186479,"large","arithmetic",2
"Arithmetic_Run2",10,1,"06-24-2015",17:25:52,4,3,"LargeProblem",6,13,"L","I",2,2,8,5,15,0,2,1,1769,16683,192012,"incorrect","arithmetic",2
"Arithmetic_Run2",10,1,"06-24-2015",17:25:52,5,4,"LargeProblem",1,11,"L","C",1,0,3,8,11,0,1,2,3644,16683,204062,"incorrect","arithmetic",2
"Arithmetic_Run2",10,1,"06-24-2015",17:25:52,5,4,"LargeProblem",2,12,"L","I",2,2,5,7,14,0,2,1,2354,16683,210595,"incorrect","arithmetic",2
"Arithmetic_Run2",10,1,"06-24-2015",17:25:52,5,4,"LargeProblem",3,11,"L","I",2,1,4,7,12,0,2,1,1885,16683,216128,"incorrect","arithmetic",2
"Arithmetic_Run2",10,1,"06-24-2015",17:25:52,5,4,"LargeProblem",4,12,"L","C",1,0,9,3,12,1,1,1,2004,16683,222161,"large","arithmetic",2
"Arithmetic_Run2",10,1,"06-24-2015",17:25:52,5,4,"LargeProblem",5,13,"L","C",1,0,7,6,13,1,1,1,2011,16683,228694,"large","arithmetic",2
"Arithmetic_Run2",10,1,"06-24-2015",17:25:52,5,4,"LargeProblem",6,13,"L","C",1,0,4,9,13,1,1,1,2021,16683,234727,"large","arithmetic",2
"Arithmetic_Run2",10,1,"06-24-2015",17:25:52,6,2,"SmallProblem",1,5,"S","I",2,2,3,2,7,1,2,2,1568,16683,252277,"small","arithmetic",2
"Arithmetic_Run2",10,1,"06-24-2015",17:25:52,6,2,"SmallProblem",2,9,"S","C",1,0,5,4,9,1,1,1,1568,16683,258310,"small","arithmetic",2
"Arithmetic_Run2",10,1,"06-24-2015",17:25:52,6,2,"SmallProblem",3,9,"S","I",2,2,6,3,11,1,2,2,1896,16683,264843,"small","arithmetic",2
"Arithmetic_Run2",10,1,"06-24-2015",17:25:52,6,2,"SmallProblem",4,10,"S","C",1,0,2,8,10,1,1,1,1171,16683,270360,"small","arithmetic",2
"Arithmetic_Run2",10,1,"06-24-2015",17:25:52,6,2,"SmallProblem",5,8,"S","I",2,1,2,6,9,1,2,2,1529,16683,276893,"small","arithmetic",2
"Arithmetic_Run2",10,1,"06-24-2015",17:25:52,6,2,"SmallProblem",6,9,"S","I",2,1,7,2,10,1,2,2,1769,16683,282426,"small","arithmetic",2
"Arithmetic_Run1",11,1,"06-05-2015",18:27:09,1,4,"LargeProblem",1,11,"L","I",2,2,8,3,13,0,2,1,3907,25762,32312,"incorrect","arithmetic",1
"Arithmetic_Run1",11,1,"06-05-2015",18:27:09,1,4,"LargeProblem",2,11,"L","C",1,0,7,4,11,0,1,2,2114,25762,38845,"incorrect","arithmetic",1
"Arithmetic_Run1",11,1,"06-05-2015",18:27:09,1,4,"LargeProblem",3,12,"L","C",1,0,4,8,12,0,1,2,1871,25762,44378,"incorrect","arithmetic",1
"Arithmetic_Run1",11,1,"06-05-2015",18:27:09,1,4,"LargeProblem",4,11,"L","I",2,2,5,6,13,1,2,2,1121,25762,50412,"large","arithmetic",1
"Arithmetic_Run1",11,1,"06-05-2015",18:27:09,1,4,"LargeProblem",5,13,"L","I",2,1,9,4,14,1,2,2,1432,25762,55945,"large","arithmetic",1
"Arithmetic_Run1",11,1,"06-05-2015",18:27:09,1,4,"LargeProblem",6,12,"L","I",2,1,3,9,13,1,2,2,1258,25762,62478,"large","arithmetic",1
"Arithmetic_Run1",11,1,"06-05-2015",18:27:09,2,6,"SmallProblem",1,9,"S","C",1,0,2,7,9,1,1,1,1738,25762,80528,"small","arithmetic",1
"Arithmetic_Run1",11,1,"06-05-2015",18:27:09,2,6,"SmallProblem",2,9,"S","C",1,0,3,6,9,0,1,2,2316,25762,87061,"incorrect","arithmetic",1
"Arithmetic_Run1",11,1,"06-05-2015",18:27:09,2,6,"SmallProblem",3,6,"S","I",2,2,4,2,8,0,2,1,1733,25762,93094,"incorrect","arithmetic",1
"Arithmetic_Run1",11,1,"06-05-2015",18:27:09,2,6,"SmallProblem",4,10,"S","C",1,0,6,4,10,0,1,2,1721,25762,98627,"incorrect","arithmetic",1
"Arithmetic_Run1",11,1,"06-05-2015",18:27:09,2,6,"SmallProblem",5,5,"S","C",1,0,2,3,5,0,1,2,1328,25762,104660,"incorrect","arithmetic",1
"Arithmetic_Run1",11,1,"06-05-2015",18:27:09,2,6,"SmallProblem",6,10,"S","I",2,2,7,3,12,0,2,1,4638,25762,111194,"incorrect","arithmetic",1
"Arithmetic_Run1",11,1,"06-05-2015",18:27:09,3,3,"LargeProblem",1,11,"L","C",1,0,2,9,11,0,NA,NA,0,25762,128743,"incorrect","arithmetic",1
"Arithmetic_Run1",11,1,"06-05-2015",18:27:09,3,3,"LargeProblem",2,13,"L","C",1,0,5,8,13,0,NA,NA,0,25762,135276,"incorrect","arithmetic",1
"Arithmetic_Run1",11,1,"06-05-2015",18:27:09,3,3,"LargeProblem",3,12,"L","C",1,0,7,5,12,0,NA,NA,0,25762,140809,"incorrect","arithmetic",1
"Arithmetic_Run1",11,1,"06-05-2015",18:27:09,3,3,"LargeProblem",4,13,"L","I",2,1,6,7,14,0,NA,NA,0,25762,146843,"incorrect","arithmetic",1
"Arithmetic_Run1",11,1,"06-05-2015",18:27:09,3,3,"LargeProblem",5,14,"L","I",2,2,9,5,16,0,NA,NA,0,25762,152376,"incorrect","arithmetic",1
"Arithmetic_Run1",11,1,"06-05-2015",18:27:09,3,3,"LargeProblem",6,14,"L","C",1,0,8,6,14,0,NA,NA,0,25762,158909,"incorrect","arithmetic",1
"Arithmetic_Run1",11,1,"06-05-2015",18:27:09,4,2,"SmallProblem",1,7,"S","I",2,1,2,5,8,1,2,2,4639,25762,170959,"small","arithmetic",1
"Arithmetic_Run1",11,1,"06-05-2015",18:27:09,4,2,"SmallProblem",2,10,"S","I",2,1,8,2,11,0,2,1,1655,25762,177492,"incorrect","arithmetic",1
"Arithmetic_Run1",11,1,"06-05-2015",18:27:09,4,2,"SmallProblem",3,9,"S","I",2,1,4,5,10,0,2,1,1057,25762,183025,"incorrect","arithmetic",1
"Arithmetic_Run1",11,1,"06-05-2015",18:27:09,4,2,"SmallProblem",4,8,"S","C",1,0,6,2,8,1,1,1,3707,25762,189058,"small","arithmetic",1
"Arithmetic_Run1",11,1,"06-05-2015",18:27:09,4,2,"SmallProblem",5,7,"S","I",2,2,3,4,9,1,2,2,2207,25762,194592,"small","arithmetic",1
"Arithmetic_Run1",11,1,"06-05-2015",18:27:09,4,2,"SmallProblem",6,8,"S","C",1,0,5,3,8,1,1,1,100,25762,200625,"small","arithmetic",1
"Arithmetic_Run1",11,1,"06-05-2015",18:27:09,5,1,"Plus1",1,4,"Plus1","I",2,1,3,1,5,0,NA,NA,0,25762,213174,"incorrect","arithmetic",1
"Arithmetic_Run1",11,1,"06-05-2015",18:27:09,5,1,"Plus1",2,3,"Plus1","C",1,0,2,1,3,0,NA,NA,0,25762,219208,"incorrect","arithmetic",1
"Arithmetic_Run1",11,1,"06-05-2015",18:27:09,5,1,"Plus1",3,10,"Plus1","I",2,2,9,1,12,0,NA,NA,0,25762,225741,"incorrect","arithmetic",1
"Arithmetic_Run1",11,1,"06-05-2015",18:27:09,5,1,"Plus1",4,6,"Plus1","I",2,2,5,1,8,0,NA,NA,0,25762,231274,"incorrect","arithmetic",1
"Arithmetic_Run1",11,1,"06-05-2015",18:27:09,5,1,"Plus1",5,8,"Plus1","C",1,0,7,1,8,0,NA,NA,0,25762,237807,"incorrect","arithmetic",1
"Arithmetic_Run1",11,1,"06-05-2015",18:27:09,5,1,"Plus1",6,5,"Plus1","I",2,1,4,1,6,0,NA,NA,0,25762,243840,"incorrect","arithmetic",1
"Arithmetic_Run1",11,1,"06-05-2015",18:27:09,6,5,"Plus1",1,7,"Plus1","C",1,0,6,1,7,0,NA,NA,0,25762,255373,"incorrect","arithmetic",1
"Arithmetic_Run1",11,1,"06-05-2015",18:27:09,6,5,"Plus1",2,5,"Plus1","C",1,0,4,1,5,0,NA,NA,0,25762,261407,"incorrect","arithmetic",1
"Arithmetic_Run1",11,1,"06-05-2015",18:27:09,6,5,"Plus1",3,9,"Plus1","C",1,0,8,1,9,0,NA,NA,0,25762,267940,"incorrect","arithmetic",1
"Arithmetic_Run1",11,1,"06-05-2015",18:27:09,6,5,"Plus1",4,8,"Plus1","I",2,1,7,1,9,0,NA,NA,0,25762,273473,"incorrect","arithmetic",1
"Arithmetic_Run1",11,1,"06-05-2015",18:27:09,6,5,"Plus1",5,4,"Plus1","C",1,0,3,1,4,0,NA,NA,0,25762,279506,"incorrect","arithmetic",1
"Arithmetic_Run1",11,1,"06-05-2015",18:27:09,6,5,"Plus1",6,9,"Plus1","I",2,2,8,1,11,0,NA,NA,0,25762,286023,"incorrect","arithmetic",1
"Arithmetic_Run2",11,2,"06-05-2015",18:36:41,1,6,"SmallProblem",1,10,"S","C",1,0,2,8,10,0,1,2,1295,12955,19488,"incorrect","arithmetic",2
"Arithmetic_Run2",11,2,"06-05-2015",18:36:41,1,6,"SmallProblem",2,7,"S","C",1,0,5,2,7,1,1,1,2286,12955,26021,"small","arithmetic",2
"Arithmetic_Run2",11,2,"06-05-2015",18:36:41,1,6,"SmallProblem",3,10,"S","C",1,0,3,7,10,1,1,1,4455,12955,31554,"small","arithmetic",2
"Arithmetic_Run2",11,2,"06-05-2015",18:36:41,1,6,"SmallProblem",4,9,"S","I",2,2,6,3,11,1,2,2,2887,12955,37587,"small","arithmetic",2
"Arithmetic_Run2",11,2,"06-05-2015",18:36:41,1,6,"SmallProblem",5,9,"S","C",1,0,5,4,9,1,1,1,2972,12955,43121,"small","arithmetic",2
"Arithmetic_Run2",11,2,"06-05-2015",18:36:41,1,6,"SmallProblem",6,9,"S","I",2,1,7,2,10,0,2,1,4575,12955,49154,"incorrect","arithmetic",2
"Arithmetic_Run2",11,2,"06-05-2015",18:36:41,2,1,"Plus1",1,7,"Plus1","C",1,0,6,1,7,1,1,1,3494,12955,67703,"plus1","arithmetic",2
"Arithmetic_Run2",11,2,"06-05-2015",18:36:41,2,1,"Plus1",2,10,"Plus1","I",2,2,9,1,12,1,2,2,3668,12955,73737,"plus1","arithmetic",2
"Arithmetic_Run2",11,2,"06-05-2015",18:36:41,2,1,"Plus1",3,5,"Plus1","I",2,2,4,1,7,0,2,1,3192,12955,80270,"incorrect","arithmetic",2
"Arithmetic_Run2",11,2,"06-05-2015",18:36:41,2,1,"Plus1",4,3,"Plus1","C",1,0,2,1,3,1,1,1,2962,12955,85803,"plus1","arithmetic",2
"Arithmetic_Run2",11,2,"06-05-2015",18:36:41,2,1,"Plus1",5,3,"Plus1","I",2,1,2,1,4,0,NA,NA,0,12955,92336,"incorrect","arithmetic",2
"Arithmetic_Run2",11,2,"06-05-2015",18:36:41,2,1,"Plus1",6,8,"Plus1","C",1,0,7,1,8,1,1,1,2691,12955,98369,"plus1","arithmetic",2
"Arithmetic_Run2",11,2,"06-05-2015",18:36:41,3,2,"SmallProblem",1,7,"S","C",1,0,4,3,7,1,1,1,1096,12955,109919,"small","arithmetic",2
"Arithmetic_Run2",11,2,"06-05-2015",18:36:41,3,2,"SmallProblem",2,8,"S","I",2,1,2,6,9,0,2,1,3424,12955,116452,"incorrect","arithmetic",2
"Arithmetic_Run2",11,2,"06-05-2015",18:36:41,3,2,"SmallProblem",3,6,"S","C",1,0,2,4,6,1,1,1,3863,12955,121986,"small","arithmetic",2
"Arithmetic_Run2",11,2,"06-05-2015",18:36:41,3,2,"SmallProblem",4,10,"S","I",2,1,4,6,11,1,2,2,6268,12955,128019,"small","arithmetic",2
"Arithmetic_Run2",11,2,"06-05-2015",18:36:41,3,2,"SmallProblem",5,5,"S","I",2,2,3,2,7,1,2,2,896,12955,134552,"small","arithmetic",2
"Arithmetic_Run2",11,2,"06-05-2015",18:36:41,3,2,"SmallProblem",6,8,"S","I",2,2,3,5,10,0,2,1,2516,12955,140585,"incorrect","arithmetic",2
"Arithmetic_Run2",11,2,"06-05-2015",18:36:41,4,5,"Plus1",1,4,"Plus1","C",1,0,3,1,4,0,1,2,3387,12955,152135,"incorrect","arithmetic",2
"Arithmetic_Run2",11,2,"06-05-2015",18:36:41,4,5,"Plus1",2,6,"Plus1","C",1,0,5,1,6,1,1,1,1964,12955,158168,"plus1","arithmetic",2
"Arithmetic_Run2",11,2,"06-05-2015",18:36:41,4,5,"Plus1",3,6,"Plus1","I",2,1,5,1,7,1,2,2,2008,12955,164701,"plus1","arithmetic",2
"Arithmetic_Run2",11,2,"06-05-2015",18:36:41,4,5,"Plus1",4,7,"Plus1","I",2,1,6,1,8,1,2,2,3469,12955,170234,"plus1","arithmetic",2
"Arithmetic_Run2",11,2,"06-05-2015",18:36:41,4,5,"Plus1",5,9,"Plus1","I",2,2,8,1,11,1,2,2,2850,12955,176268,"plus1","arithmetic",2
"Arithmetic_Run2",11,2,"06-05-2015",18:36:41,4,5,"Plus1",6,10,"Plus1","C",1,0,9,1,10,1,1,1,1972,12955,181801,"plus1","arithmetic",2
"Arithmetic_Run2",11,2,"06-05-2015",18:36:41,5,4,"LargeProblem",1,11,"L","I",2,1,4,7,12,1,2,2,3166,12955,200350,"large","arithmetic",2
"Arithmetic_Run2",11,2,"06-05-2015",18:36:41,5,4,"LargeProblem",2,11,"L","I",2,2,9,2,13,1,2,2,3896,12955,205884,"large","arithmetic",2
"Arithmetic_Run2",11,2,"06-05-2015",18:36:41,5,4,"LargeProblem",3,11,"L","C",1,0,3,8,11,0,1,2,4949,12955,212417,"incorrect","arithmetic",2
"Arithmetic_Run2",11,2,"06-05-2015",18:36:41,5,4,"LargeProblem",4,12,"L","I",2,1,8,4,13,1,2,2,4854,12955,218450,"large","arithmetic",2
"Arithmetic_Run2",11,2,"06-05-2015",18:36:41,5,4,"LargeProblem",5,11,"L","C",1,0,6,5,11,1,1,1,3287,12955,224983,"large","arithmetic",2
"Arithmetic_Run2",11,2,"06-05-2015",18:36:41,5,4,"LargeProblem",6,13,"L","C",1,0,7,6,13,0,1,2,2819,12955,230516,"incorrect","arithmetic",2
"Arithmetic_Run2",11,2,"06-05-2015",18:36:41,6,3,"LargeProblem",1,13,"L","C",1,0,4,9,13,1,1,1,3865,12955,248549,"large","arithmetic",2
"Arithmetic_Run2",11,2,"06-05-2015",18:36:41,6,3,"LargeProblem",2,12,"L","I",2,2,5,7,14,1,2,2,4013,12955,255082,"large","arithmetic",2
"Arithmetic_Run2",11,2,"06-05-2015",18:36:41,6,3,"LargeProblem",3,12,"L","C",1,0,9,3,12,0,1,2,5409,12955,260616,"incorrect","arithmetic",2
"Arithmetic_Run2",11,2,"06-05-2015",18:36:41,6,3,"LargeProblem",4,14,"L","C",1,0,5,9,14,1,1,1,3089,12955,266649,"large","arithmetic",2
"Arithmetic_Run2",11,2,"06-05-2015",18:36:41,6,3,"LargeProblem",5,14,"L","I",2,1,6,8,15,1,2,2,2896,12955,272182,"large","arithmetic",2
"Arithmetic_Run2",11,2,"06-05-2015",18:36:41,6,3,"LargeProblem",6,13,"L","I",2,2,8,5,15,1,2,2,4237,12955,278715,"large","arithmetic",2
"Arithmetic_Run1",13,1,"07-12-2015",14:13:19,1,6,"SmallProblem",1,5,"S","C",1,0,2,3,5,1,1,1,1882,64909,71443,"small","arithmetic",1
"Arithmetic_Run1",13,1,"07-12-2015",14:13:19,1,6,"SmallProblem",2,10,"S","C",1,0,6,4,10,1,1,1,1121,64909,77976,"small","arithmetic",1
"Arithmetic_Run1",13,1,"07-12-2015",14:13:19,1,6,"SmallProblem",3,10,"S","I",2,1,8,2,11,1,2,2,2679,64909,84009,"small","arithmetic",1
"Arithmetic_Run1",13,1,"07-12-2015",14:13:19,1,6,"SmallProblem",4,10,"S","I",2,2,7,3,12,1,2,2,3190,64909,89542,"small","arithmetic",1
"Arithmetic_Run1",13,1,"07-12-2015",14:13:19,1,6,"SmallProblem",5,9,"S","I",2,1,4,5,10,1,2,2,3361,64909,95559,"small","arithmetic",1
"Arithmetic_Run1",13,1,"07-12-2015",14:13:19,1,6,"SmallProblem",6,7,"S","I",2,2,3,4,9,1,2,2,3802,64909,102092,"small","arithmetic",1
"Arithmetic_Run1",13,1,"07-12-2015",14:13:19,2,4,"LargeProblem",1,12,"L","C",1,0,4,8,12,0,NA,NA,0,64909,119642,"incorrect","arithmetic",1
"Arithmetic_Run1",13,1,"07-12-2015",14:13:19,2,4,"LargeProblem",2,11,"L","C",1,0,7,4,11,1,1,1,1894,64909,126175,"large","arithmetic",1
"Arithmetic_Run1",13,1,"07-12-2015",14:13:19,2,4,"LargeProblem",3,11,"L","C",1,0,2,9,11,1,1,1,4182,64909,132208,"large","arithmetic",1
"Arithmetic_Run1",13,1,"07-12-2015",14:13:19,2,4,"LargeProblem",4,14,"L","I",2,2,9,5,16,1,2,2,5334,64909,137741,"large","arithmetic",1
"Arithmetic_Run1",13,1,"07-12-2015",14:13:19,2,4,"LargeProblem",5,13,"L","I",2,1,9,4,14,1,2,2,3546,64909,143775,"large","arithmetic",1
"Arithmetic_Run1",13,1,"07-12-2015",14:13:19,2,4,"LargeProblem",6,12,"L","C",1,0,7,5,12,1,1,1,2658,64909,150308,"large","arithmetic",1
"Arithmetic_Run1",13,1,"07-12-2015",14:13:19,3,3,"LargeProblem",1,13,"L","C",1,0,5,8,13,1,1,1,4925,64909,167857,"large","arithmetic",1
"Arithmetic_Run1",13,1,"07-12-2015",14:13:19,3,3,"LargeProblem",2,12,"L","I",2,1,3,9,13,1,2,2,4983,64909,173874,"large","arithmetic",1
"Arithmetic_Run1",13,1,"07-12-2015",14:13:19,3,3,"LargeProblem",3,11,"L","I",2,2,5,6,13,1,2,2,5558,64909,179407,"large","arithmetic",1
"Arithmetic_Run1",13,1,"07-12-2015",14:13:19,3,3,"LargeProblem",4,11,"L","I",2,2,8,3,13,1,2,2,4990,64909,185940,"large","arithmetic",1
"Arithmetic_Run1",13,1,"07-12-2015",14:13:19,3,3,"LargeProblem",5,13,"L","I",2,1,6,7,14,0,NA,NA,0,64909,191974,"incorrect","arithmetic",1
"Arithmetic_Run1",13,1,"07-12-2015",14:13:19,3,3,"LargeProblem",6,14,"L","C",1,0,8,6,14,0,1,2,217,64909,197507,"incorrect","arithmetic",1
"Arithmetic_Run1",13,1,"07-12-2015",14:13:19,4,2,"SmallProblem",1,6,"S","I",2,2,4,2,8,1,2,2,4428,64909,210057,"small","arithmetic",1
"Arithmetic_Run1",13,1,"07-12-2015",14:13:19,4,2,"SmallProblem",2,9,"S","C",1,0,3,6,9,1,1,1,3912,64909,215590,"small","arithmetic",1
"Arithmetic_Run1",13,1,"07-12-2015",14:13:19,4,2,"SmallProblem",3,9,"S","C",1,0,2,7,9,1,1,1,1534,64909,221623,"small","arithmetic",1
"Arithmetic_Run1",13,1,"07-12-2015",14:13:19,4,2,"SmallProblem",4,8,"S","C",1,0,6,2,8,1,1,1,2769,64909,228156,"small","arithmetic",1
"Arithmetic_Run1",13,1,"07-12-2015",14:13:19,4,2,"SmallProblem",5,7,"S","I",2,1,2,5,8,1,2,2,2479,64909,233689,"small","arithmetic",1
"Arithmetic_Run1",13,1,"07-12-2015",14:13:19,4,2,"SmallProblem",6,8,"S","C",1,0,5,3,8,0,NA,NA,0,64909,240206,"incorrect","arithmetic",1
"Arithmetic_Run1",13,1,"07-12-2015",14:13:19,5,5,"Plus1",1,9,"Plus1","C",1,0,8,1,9,0,1,2,1514,64909,252256,"incorrect","arithmetic",1
"Arithmetic_Run1",13,1,"07-12-2015",14:13:19,5,5,"Plus1",2,10,"Plus1","I",2,2,9,1,12,1,2,2,1701,64909,258789,"plus1","arithmetic",1
"Arithmetic_Run1",13,1,"07-12-2015",14:13:19,5,5,"Plus1",3,8,"Plus1","I",2,1,7,1,9,1,2,2,2524,64909,264822,"plus1","arithmetic",1
"Arithmetic_Run1",13,1,"07-12-2015",14:13:19,5,5,"Plus1",4,5,"Plus1","I",2,1,4,1,6,1,2,2,1916,64909,270355,"plus1","arithmetic",1
"Arithmetic_Run1",13,1,"07-12-2015",14:13:19,5,5,"Plus1",5,6,"Plus1","I",2,2,5,1,8,1,2,2,4039,64909,276372,"plus1","arithmetic",1
